ACCELEROMETER X (m/s²),ACCELEROMETER Y (m/s²),ACCELEROMETER Z (m/s²),GRAVITY X (m/s²),GRAVITY Y (m/s²),GRAVITY Z (m/s²),LINEAR ACCELERATION X (m/s²),LINEAR ACCELERATION Y (m/s²),LINEAR ACCELERATION Z (m/s²),GYROSCOPE X (rad/s),GYROSCOPE Y (rad/s),GYROSCOPE Z (rad/s),LIGHT (lux),MAGNETIC FIELD X (μT),MAGNETIC FIELD Y (μT),MAGNETIC FIELD Z (μT),ORIENTATION Z (azimuth °),ORIENTATION X (pitch °),ORIENTATION Y (roll °),YYYY-MO-DD HH-MI-SS_SSS
-3.0943,2.833,9.6724,-1.9644,2.6822,9.2259,0.7918,0.0129,0.4631,-0.0442,-1.6485,-0.055,42.8408,-17.18,-3.3,-27.01,76.88,-18.95,9.29,2021-03-19 12:19:57:874
10.3761,-0.4697,-14.4961,3.5679,0.8973,-9.0904,11.4416,-2.6962,-8.1618,6.9743,1.6908,1.3735,42.8408,-14.38,6.79,6.84,307.49,-5.25,-158.57,2021-03-19 12:19:58:375
-7.9088,-9.0154,-4.63,3.7074,-7.4396,-5.2036,-4.2536,-2.6802,-5.1051,1.788,0.1102,-2.2929,42.8408,-8.7,36.52,6.98,348.33,49.34,-144.53,2021-03-19 12:19:58:875
2.484,-9.5757,-7.4311,2.6032,-6.3417,-7.0126,0.2373,0.2044,-0.6375,0.7129,0.5307,-0.2923,42.8408,-20.93,33.94,-3.92,318.27,40.29,-159.63,2021-03-19 12:19:59:375
-34.3037,11.4218,2.7055,3.1553,-8.4514,-3.8457,3.3438,-2.8124,-5.3847,0.238,2.677,-0.6228,42.8408,-20,32.82,-7.5,304.67,56.44,-147.76,2021-03-19 12:19:59:877
3.6332,-4.1542,-2.1006,3.5117,-8.2071,-4.0597,2.4938,-0.8266,0.8653,-0.0675,-0.0141,-0.493,42.8408,-27.02,25.88,-8.28,282.19,57.23,-142.77,2021-03-19 12:20:00:375
4.1826,-8.7186,-9.1213,4.5595,-7.1796,-4.882,0.2102,0.7028,0.1001,-0.5006,-0.3379,0.5119,42.8408,-27.5,25.16,-8.02,285.76,47.06,-136.96,2021-03-19 12:20:00:874
2.8635,-5.4207,-5.0394,3.854,-5.4388,-7.1928,0.3865,-2.4981,2.1872,-1.0549,0.5536,1.3644,42.8408,-25.45,28.55,-2.33,308.93,33.68,-151.82,2021-03-19 12:20:01:375
3.3064,-6.0252,-0.3685,4.4905,-5.918,-6.4017,1.9937,2.1309,-0.0786,0.4457,1.5561,0.2007,42.8408,-17.24,35.24,3.35,328.26,36.09,-152.24,2021-03-19 12:20:01:874
0.6561,-5.605,-8.6497,2.7729,-7.9099,-5.0907,-0.5354,1.5249,0.6808,0.8708,0.2491,0.1527,42.8408,-10.17,39.36,0.7,340.6,44.7,-152.35,2021-03-19 12:20:02:374
4.094,-6.5351,-4.9161,3.0849,-8.8103,-3.0054,1.2729,2.0938,-1.3204,-0.0952,-0.1956,1.0709,12.8718,-9.73,37.58,-13.75,320.64,59.36,-131.35,2021-03-19 12:20:02:874
1.585,-7.9872,-6.9295,2.4419,-8.7807,-3.6202,1.9076,-2.8642,-0.0516,-0.5134,0.5286,-0.9676,12.8718,-3.61,39.14,-15.88,335.76,63.56,-146,2021-03-19 12:20:03:375
0.5879,-4.3745,-2.6141,3.4298,-8.5977,-3.2382,0.698,-1.1797,1.0409,0.8024,-0.1391,0.0431,5.2028,-6.15,40.41,-12.3,334,58.08,-138.8,2021-03-19 12:20:03:874
10.1379,-11.0205,-2.9326,2.8728,-8.8153,-3.195,-0.0816,1.5509,-0.4255,-0.408,-0.3413,-0.1057,5.2028,-6.93,39.62,-17.42,326.12,64.02,-138.04,2021-03-19 12:20:04:375
8.2011,-10.7919,-8.1301,3.1169,-8.3169,-4.1575,0.3547,-2.8159,1.0437,0.4958,-0.1492,0.2758,0,-12.6,39.83,-15.15,321.92,58,-143.14,2021-03-19 12:20:04:874
2.065,-5.927,-0.4894,2.9893,-8.9773,-2.5772,-1.588,0.1846,-2.6387,0.5837,-0.7716,-0.4279,0,-15.67,34.46,-18.91,299.32,66.27,-130.77,2021-03-19 12:20:05:375
2.6468,-8.3367,-5.7444,3.4698,-8.8562,-2.3874,-0.8666,0.1524,-2.3443,0.7004,-0.6436,-0.5678,0,-17.94,28.5,-16.92,290.9,64.71,-128.88,2021-03-19 12:20:05:875
2.2278,-7.7693,-3.0547,3.2975,-9.0468,-1.8579,1.2718,0.9028,-1.857,0.3091,-0.4763,0.642,11.338,-19.92,23.52,-18.62,273.89,67.3,-119.4,2021-03-19 12:20:06:376
4.847,-9.5373,-2.504,2.817,-9.2181,-1.806,0.4317,0.4382,-1.8606,0.1799,-0.1226,-0.0534,11.338,-23.89,24.7,-19.06,268.37,70.05,-122.66,2021-03-19 12:20:06:874
12.8337,-13.9138,2.5356,2.7245,-9.1861,-2.0887,1.6926,1.0521,-1.1709,0.2258,0.2641,-0.4108,5.2028,-25.32,24.8,-18.03,270.83,69.51,-127.48,2021-03-19 12:20:07:374
3.7589,-5.939,-3.063,2.542,-9.3154,-1.7126,1.6462,-0.6935,-2.6173,0.8049,-0.1745,-0.9291,5.2028,-27.11,28.06,-14.73,278.89,72.79,-144.16,2021-03-19 12:20:07:875
2.1333,-10.2532,-5.353,2.6829,-8.7167,-3.6045,3.1939,-0.7769,3.5391,-0.466,0.2452,0.0156,5.2028,-36.56,23.12,-2.62,244.78,67.14,-134.84,2021-03-19 12:20:08:375
5.7675,-6.0108,-3.8387,1.8528,-9.1569,-2.9815,4.4067,-8.4163,0.6931,0.9744,-1.5175,-0.7397,40.4803,-36.31,27.05,3.72,248.04,70.8,-149.41,2021-03-19 12:20:08:875
3.3782,-4.3984,4.0534,2.5129,-9.0261,-2.8957,4.3198,-0.6098,-2.8822,-0.5879,-0.5847,-0.518,40.4803,-22.45,32.58,16.73,204.19,66.99,-139.05,2021-03-19 12:20:09:375
1.9453,-7.5945,-6.2077,4.6308,-5.6202,-6.5681,-6.1641,2.7883,7.8384,0.6225,-1.1455,1.1671,40.4803,-26.2,21.77,18.67,254.47,40.1,-144.67,2021-03-19 12:20:09:875
4.7237,-3.0888,-6.2927,3.6056,-5.9239,-6.9338,3.6291,0.4245,-0.8086,0.3702,-0.684,1.0296,40.4803,-33.53,5.09,14.8,239.03,35.21,-150.07,2021-03-19 12:20:10:374
-0.1028,-10.1071,-5.1495,3.3518,-7.6907,-5.0783,2.9815,-0.7723,-1.0504,0.2872,-0.3654,0.1411,11.338,-36.38,6.78,10.07,234.11,51.65,-146.57,2021-03-19 12:20:10:875
-6.3873,-10.1861,-4.2086,3.5212,-8.2629,-3.9366,5.3682,-0.6805,2.3195,-0.2006,-0.4934,0.2379,2.1352,-36.81,10.13,13.09,218.75,57.41,-138.19,2021-03-19 12:20:11:374
0.0372,-1.5865,0.236,3.3942,-8.4894,-3.5467,0.3997,-0.0733,-2.1736,1.3931,0.1544,0.1497,12.8718,-36.13,3.45,17.49,211.85,53.85,-140.5,2021-03-19 12:20:11:875
18.7423,-17.2775,-10.0119,3.0229,-7.4022,-5.678,0.5107,-0.4919,-0.3464,-0.3848,0.5674,-0.481,12.8718,-22.55,9.74,27.48,192.2,49.63,-146.7,2021-03-19 12:20:12:374
3.6499,-22.2979,-6.3154,2.4731,-6.3937,-7.0125,3.9178,0.7866,-3.269,1.0584,0.758,-0.8002,2.1352,-35.32,10.43,31.3,229.97,40.69,-160.57,2021-03-19 12:20:12:875
67.8094,-37.2107,-18.4104,2.6386,-7.0002,-6.3407,-3.4704,-0.9832,3.4118,-0.9633,-1.0664,1.3913,2.1352,-18.46,4.4,30.31,193.09,45.55,-157.41,2021-03-19 12:20:13:375
15.2565,-14.9289,-8.9824,2.3222,-7.1308,-6.3189,-3.7263,-1.8055,7.4031,0.9026,-0.8452,1.2489,2.1352,-24.24,5.79,29.08,203.69,36.97,-152.07,2021-03-19 12:20:13:874
6.5576,-1.6823,-8.1744,2.7766,-6.2975,-6.9858,4.3199,4.3233,-2.7109,-0.1066,0.0866,0.6112,2.1352,-23.76,3.83,28.09,200.05,43.23,-151.83,2021-03-19 12:20:14:374
-6.1431,-6.9326,3.2287,2.4688,-6.5936,-6.8264,-4.5283,2.0976,-3.9972,1.07,-1.6268,1.0021,0,-24.96,-0.83,25.73,212.64,42.25,-160.12,2021-03-19 12:20:14:875
2.4265,-7.7513,-20.2024,1.6664,-7.1836,-6.4645,4.2264,0.718,1.8245,-0.9373,-0.0019,-0.2599,0,-20.6,-1.17,34.08,202.48,47.1,-165.55,2021-03-19 12:20:15:375
5.4587,-1.802,-20.1593,1.4326,-7.1441,-6.5635,1.4381,4.6464,-6.3651,1.5901,-1.5514,0.6133,0,-19.76,2.77,31.72,197.27,42.93,-158.94,2021-03-19 12:20:15:875
0.9554,-11.4993,-10.1065,2.1807,-6.9001,-6.6184,-2.994,1.8217,3.279,0.0969,1.0408,-1.5885,0,-24.74,3.14,24.52,218.41,44.72,-161.76,2021-03-19 12:20:16:375
-8.1051,2.0597,-28.4836,1.9864,-6.6084,-6.968,-0.022,-3.8715,5.2836,-0.0229,-0.4708,-2.4178,0,-29.66,6.59,24.29,234.44,42.37,-164.09,2021-03-19 12:20:16:876
15.9364,-10.8768,-17.1092,3.0039,-6.8887,-6.3003,3.2254,0.2061,-4.3353,0.3006,-0.37,0.6206,0,-27.27,5.68,22.09,219.87,44.62,-154.51,2021-03-19 12:20:17:374
-13.3446,1.0913,-1.0927,2.2227,-6.7407,-6.767,-4.3935,2.1299,2.2801,-0.3194,0.3337,-0.0385,0,-24.85,1.85,29.26,212.46,44.17,-161.89,2021-03-19 12:20:17:874
11.9898,-8.9125,-6.465,2.0116,-6.9452,-6.6249,2.1274,1.1917,-0.3155,0.0788,-0.6974,-0.0363,0,-20.65,12.28,28.71,215.79,44.52,-162.06,2021-03-19 12:20:18:374
4.7165,-6.5339,-6.3693,2.0615,-6.5,-7.0477,2.6096,0.0539,2.9273,-0.003,-0.0169,0.2343,0,-24.53,10.65,27.66,228.59,41.51,-163.7,2021-03-19 12:20:18:874
3.0299,-5.6445,-6.2424,2.1364,-6.655,-6.8788,2.1484,0.54,-0.6099,-0.2052,0.0298,-0.2981,0,-24.76,10,31.16,219.55,42.74,-162.75,2021-03-19 12:20:19:375
0.9422,-5.6876,-8.4486,2.3091,-5.6896,-7.6464,2.4546,-0.3083,0.2139,-0.1866,0.269,0.2334,0,-19.65,10.87,27.44,228.46,37.55,-164.02,2021-03-19 12:20:19:875
1.038,-4.7851,-7.1593,1.9659,-6.5328,-7.0447,0.4577,-0.4372,0.5198,-0.0397,0.0399,-0.2911,0,-26.13,17.79,6.79,280.46,41.77,-164.41,2021-03-19 12:20:20:375
-6.7369,-3.4049,-10.3567,1.7989,-4.6555,-8.4416,1.2169,-3.6832,1.4238,-0.2956,-0.0871,0.788,0,-45.15,23.73,20.64,279.9,28.34,-167.97,2021-03-19 12:20:20:875
8.0778,-8.7485,-6.8301,2.2469,-6.0712,-7.3663,-1.0263,-0.6518,4.1125,0.5889,-0.9958,0.0977,0,-41.47,14.2,27.44,248.41,38.25,-163.04,2021-03-19 12:20:21:374
8.7063,-10.562,-10.9947,2.8869,-5.647,-7.4798,0.9191,-1.5064,1.2006,-0.3115,0.4513,0.7786,0,-37.18,18.61,19.07,265.16,35.16,-158.9,2021-03-19 12:20:21:876
-4.7234,-1.4249,-4.3223,4.6862,-7.51,-4.2201,-2.5666,1.5152,-3.8647,1.2981,0.3872,-0.2498,0,-39.98,21,6.57,239.22,49.98,-132,2021-03-19 12:20:22:374
9.5526,-7.6281,-1.5655,4.9044,-7.2379,-4.442,-4.1233,1.8958,-2.366,-0.6783,0.0931,-0.3693,0,-36.49,13.47,-1.46,247.29,47.57,-132.17,2021-03-19 12:20:22:874
4.9248,-4.7922,-9.2901,4.4789,-7.7155,-4.0719,-0.6934,1.1588,-3.4989,0.6408,-0.9921,-0.3427,0,-36.86,15.96,2.52,239.69,51.88,-132.28,2021-03-19 12:20:23:374
5.7771,-9.4332,-3.7453,4.7189,-7.7939,-3.6274,-0.0131,0.0379,-2.041,0.4014,-0.6412,-0.1194,0,-38.99,15.17,12.42,212.49,52.78,-126.74,2021-03-19 12:20:23:874
3.9348,-6.9637,-7.8644,4.2718,-7.5667,-4.5462,-0.9686,0.6878,-2.2671,0.3003,-0.3568,0.0144,2.1352,-30.49,17.56,22.09,202.06,50.5,-136.78,2021-03-19 12:20:24:375
-0.7037,-3.2852,-11.0916,4.1172,-7.1715,-5.2715,0.4341,-0.2128,-0.0858,-0.1142,1.0072,0.3042,2.1352,-26.42,8.52,24.78,194.33,46.99,-142.01,2021-03-19 12:20:24:874
4.3179,-7.4066,-3.5215,3.7177,-7.0322,-5.7356,-0.0732,-0.6438,2.565,0.0706,-0.4967,0.0018,2.1352,-22.07,8.58,31.67,182.8,45.81,-147.05,2021-03-19 12:20:25:375
5.9626,-8.8646,-5.2441,3.644,-7.221,-5.5451,0.6651,-0.1376,1.2846,-0.0974,-0.8058,-0.2181,2.1352,-19.93,9.05,31.89,177.73,47.42,-146.69,2021-03-19 12:20:25:875
4.0366,-7.2917,-4.4025,3.3423,-7.1661,-5.8005,3.1156,-0.2366,1.3778,-0.1206,0.2885,0.2382,2.1352,-14.77,9.2,34.03,169.2,46.95,-150.05,2021-03-19 12:20:26:374
1.8723,-5.064,-6.2149,3.0358,-6.2802,-6.893,1.3475,-0.1831,0.8799,-0.2141,0.0634,0.2346,2.1352,-10.73,6.45,39.06,164.99,39.82,-156.23,2021-03-19 12:20:26:874
3.6248,-5.8145,-9.9293,3.0147,-6.4904,-6.705,-1.6738,-1.0873,-0.2532,0.3983,0.1477,-0.0721,2.1352,-18.75,4.25,42.23,180.22,41.44,-155.79,2021-03-19 12:20:27:374
4.2808,-7.5682,-6.9762,2.8618,-6.244,-6.9995,0.8805,-1.4642,3.1874,-0.8081,-0.4271,-0.0061,2.1352,-22.02,10.56,43.3,182.25,43.75,-154.09,2021-03-19 12:20:27:874
-7.2313,-7.1289,3.1161,2.41,-4.8918,-8.1506,-1.9818,0.4808,0.7333,-1.5564,1.4217,0.4169,2.1352,-24.68,4.94,44.76,204.43,32.29,-162.51,2021-03-19 12:20:28:374
5.5341,-2.8518,-10.2621,2.5927,-4.3747,-8.3851,-0.6509,-3.0113,1.7246,-0.5821,0.4706,0.9817,2.1352,-32.3,0.46,34.12,227.66,26.49,-162.82,2021-03-19 12:20:28:874
0.1988,-6.7195,-3.6939,2.1768,-4.3938,-8.4927,0.3518,-0.6474,-1.3619,-0.0855,0.5271,0.6952,2.1352,-35.06,10.83,22.36,262.77,26.62,-165.62,2021-03-19 12:20:29:375
-0.8258,-6.8476,1.1075,2.119,-3.7405,-8.8141,-2.5432,-2.8243,4.8223,-0.3814,0.4199,1.2755,2.1208,-32.05,22.03,19.54,287.44,25.66,-168.79,2021-03-19 12:20:29:875
4.4472,-3.5353,-17.8215,1.3137,-3.532,-9.0537,2.874,-12.8171,6.6305,0.0162,1.0329,1.0602,2.1208,-16.48,37.31,23.41,330.72,20.28,-177.16,2021-03-19 12:20:30:375
4.8422,-5.6912,-4.8059,1.6815,-5.6511,-7.8363,3.4065,0.5227,-1.7054,1.2184,-0.4506,0.1069,2.1208,-0.74,42.37,22.29,9.47,35.19,-167.89,2021-03-19 12:20:30:875
8.504,-11.1665,-4.1643,2.3208,-7.0867,-6.3688,2.1964,-1.4256,2.5334,0.2496,-0.6357,1.2208,2.1208,0.39,47.41,8.05,5.78,46.27,-159.98,2021-03-19 12:20:31:375
2.0052,-7.9632,-7.0767,3.5899,-5.088,-7.5759,1.9635,-1.8208,4.8724,-0.6059,-0.5939,0.3329,2.1208,2.24,46.79,13.54,15.02,37.48,-153.1,2021-03-19 12:20:31:876
1.1912,-4.7731,-10.5147,2.6523,-6.7007,-6.6511,-2.0683,-1.7136,0.1865,1.603,-1.2148,-0.7749,2.1208,8,42.95,21.95,38.68,43.1,-158.26,2021-03-19 12:20:32:375
10.8921,-8.9125,-0.463,3.9833,-8.1081,-3.816,3.413,1.3008,-0.5079,0.0492,-1.0441,-0.5537,2.1208,12.53,41.33,4.87,24.26,55.77,-133.77,2021-03-19 12:20:32:875
8.2933,-10.6997,-10.7241,2.4617,-6.1042,-7.2698,0.4354,-1.6743,0.5816,-0.5781,0.6059,0.4438,2.1208,3.26,37.02,1.01,6.23,38.5,-161.29,2021-03-19 12:20:33:375
1.5695,-5.9965,-4.1128,1.9856,-8.226,-4.9558,-4.4622,-0.0024,-1.0227,0.821,-0.7844,-1.222,2.1208,10.5,34.95,3.88,29.47,57.02,-158.17,2021-03-19 12:20:33:874
4.331,-11.9279,-5.6511,1.402,-5.701,-7.8551,2.7903,-2.6232,2.0103,-0.82,-0.0868,0.8919,2.1208,2.78,34.51,0.66,6.58,38.3,-164.36,2021-03-19 12:20:34:374
-2.0157,-4.7252,-7.9614,1.9905,-6.3232,-7.2267,1.7414,0.748,-0.3258,0.2658,0.068,-0.0461,2.1208,10.79,35.53,10.16,29.77,40.15,-164.6,2021-03-19 12:20:34:874
0.1593,-4.3182,-7.4897,1.3205,-5.911,-7.7127,0.3802,-0.7588,2.1028,-0.0342,0.1444,0.6665,2.1208,20.04,29.45,11.7,50.3,37.07,-170.28,2021-03-19 12:20:35:374
5.3449,-4.1602,-4.4827,3.208,-5.2629,-7.6276,3.4919,-2.1446,0.1099,-0.3668,1.5329,0.0666,2.1208,22.79,20.55,16.1,67,35.95,-166.18,2021-03-19 12:20:35:874
3.3147,-3.5952,-12.6849,3.6129,-5.265,-7.4429,2.2146,0.4167,1.1718,-0.7394,-0.205,-0.0687,0,16.96,12.71,24.89,83.73,32.47,-154.11,2021-03-19 12:20:36:375
0.8883,-6.2502,-4.6779,4.224,-6.9107,-5.5291,-0.0306,1.7401,-3.775,0.3806,1.0918,-0.3381,0,13.89,11.57,32.88,97.27,44.8,-142.62,2021-03-19 12:20:36:875
10.8861,-10.987,1.068,4.1794,-8.3428,-3.0167,3.1918,0.0567,-1.4282,-0.142,0.2543,0.0825,0,10.89,26.22,27.72,75.91,58.29,-125.82,2021-03-19 12:20:37:374
4.9894,-6.2502,-0.4283,3.9927,-8.2044,-3.5939,-2.2498,-0.0593,-1.2678,0.3702,-0.643,-0.5461,0,13.92,31.18,22.6,63.31,54.89,-133.37,2021-03-19 12:20:37:875
2.8862,-6.3723,-8.5934,4.5154,-8.2585,-2.7529,-5.5755,3.7181,-2.5529,0.0727,-1.5328,-0.6167,0,24.65,41.08,30.35,55.11,57.37,-121.37,2021-03-19 12:20:38:374
4.4412,-6.1281,-5.7779,4.004,-8.1642,-3.6721,0.762,-1.8227,-0.375,0.6534,-0.815,-0.2227,0,16.36,31.79,34.96,77.9,56.36,-132.52,2021-03-19 12:20:38:874
4.4843,-8.0207,-6.0724,3.8447,-8.6262,-2.6415,-2.5623,0.0175,-4.1362,0.5159,-2.2734,0.0675,0,15.64,27.05,20.74,62.06,61.6,-124.49,2021-03-19 12:20:39:374
-0.1196,-10.3777,-3.6915,3.4139,-6.7592,-6.2312,1.7032,-1.8816,-0.6608,-0.8769,-0.0306,0.1213,0,13.15,33.57,5.6,30.62,48.63,-147.26,2021-03-19 12:20:39:875
-0.5146,-5.9773,-8.7957,2.5374,-7.8927,-5.2381,-1.023,0.0015,-0.6943,1.3607,-0.5871,0.2807,0,14.63,38.17,10.96,38.31,47.47,-154.47,2021-03-19 12:20:40:375
4.4412,-6.6477,-7.0839,3.8984,-6.8677,-5.8144,1.9789,-2.9645,0.826,0.1891,-0.2496,-0.5143,0.6014,14.75,39.52,7.47,28.34,44.45,-146.16,2021-03-19 12:20:40:875
14.1133,-15.1431,-14.7821,3.4152,-7.1322,-5.7999,-4.0645,4.215,0.7422,-0.1814,1.6926,-0.5763,0,7.06,38.45,8.36,23.11,46.66,-149.51,2021-03-19 12:20:41:375
3.7182,-3.7508,-8.1828,1.6372,-5.2875,-8.0952,1.0776,0.0248,1.7064,-0.9001,-1.0364,0.1729,0,3.28,38.9,7.52,12.85,39.61,-156.27,2021-03-19 12:20:41:877
4.0174,-7.4246,-5.8222,3.6623,-4.6066,-7.8446,-1.1284,-0.5144,1.7629,-0.2189,-0.2334,0.5535,0,-0.03,31.74,19.84,26.49,30.96,-152.89,2021-03-19 12:20:42:375
4.4747,-4.0716,-6.3202,3.5367,-5.7055,-7.149,-0.4804,-3.1309,-0.2235,0.7917,0.5625,-0.7605,0,-4.12,35.39,14.24,7.42,35.58,-153.68,2021-03-19 12:20:42:875
4.3358,-6.5268,-6.2651,3.9158,-7.5396,-4.898,1.0605,-0.8865,-1.4235,-0.9685,0.4281,-0.5037,0,16.61,37.73,6.2,30.54,50.25,-141.36,2021-03-19 12:20:43:375
0.1976,-5.7642,-8.0284,3.8204,-7.4252,-5.1421,2.7757,-1.4027,-0.0587,0.4035,0.4086,0.1429,0,15.43,31.95,9.3,38.24,48.4,-145.09,2021-03-19 12:20:43:874
-4.5439,-4.5564,-5.742,3.9164,-6.5743,-6.1328,9.1929,-0.8441,-4.6841,-0.4337,-0.8672,0.8332,0,9.63,35.52,11.72,32.31,42.1,-147.44,2021-03-19 12:20:44:375
9.5023,-0.8803,-10.796,3.1379,-6.8786,-6.2457,1.3487,0.1305,3.2127,-0.8433,-0.6256,-0.3161,0,12.18,37.26,14.4,38.51,44.54,-153.32,2021-03-19 12:20:44:877
-5.3663,-0.6528,-6.477,3.6469,-6.789,-6.0647,-2.5965,2.1322,1.0653,0.6864,0.4498,-0.0925,0,15.68,32.31,15.53,48.67,43.81,-148.98,2021-03-19 12:20:45:375
8.4848,-16.3833,-4.7221,4.1067,-5.8853,-6.6835,3.1765,-4.3739,4.1695,0.1286,0.4241,0.7498,0,12.47,34.26,12.74,35,36.88,-148.43,2021-03-19 12:20:45:877
-1.6159,-4.9646,-6.4004,3.6485,-6.9975,-5.8218,2.7452,0.8865,-4.1098,-0.2758,-0.6183,-0.0968,0,8.32,36.63,9.43,26.18,45.52,-147.92,2021-03-19 12:20:46:375
21.6105,-11.8093,-18.8294,4.09,-6.9461,-5.5852,-0.3477,-1.068,2.5261,0.3687,-0.6589,0.7355,0,6.81,37.93,0.8,12.07,45.1,-143.78,2021-03-19 12:20:46:874
-5.1807,2.6845,-3.3611,3.6251,-6.4911,-6.3949,-2.719,3.6465,-0.9457,0.1069,0.8273,1.2651,0,6.53,37.92,4.92,17.05,41.45,-150.45,2021-03-19 12:20:47:375
-2.3581,-7.7035,-12.3198,4.4504,-6.7008,-5.6093,-3.534,3.6612,-5.5341,0.1827,1.7338,-1.054,0,8.74,34.22,12.87,32.09,38.99,-159.13,2021-03-19 12:20:47:876
11.4667,-8.5426,-3.95,3.2802,-6.8369,-6.2183,-1.2247,-2.3599,-1.0122,0.2383,0.619,0.0987,0,5.3,35.88,4.31,14.23,44.56,-150.95,2021-03-19 12:20:48:375
18.7782,-13.4002,-12.1067,3.1141,-6.7376,-6.4092,3.9641,0.9271,-4.1403,-0.2241,0.1587,-0.8784,0,2.26,37.21,2.69,6.92,43.4,-154.09,2021-03-19 12:20:48:875
0.8321,-7.5419,-3.5047,2.1887,-6.3277,-7.1652,2.2651,-1.5806,-2.5649,-0.0033,-0.9604,0.8375,0,0.79,36.93,3.34,3.94,40.18,-163.01,2021-03-19 12:20:49:374
3.2764,-7.6496,-8.3193,3.059,-6.3974,-6.774,-1.0969,1.4367,0.3176,-0.3518,-1.5972,-0.6707,40.4803,2.38,40.48,5.7,9.12,38.14,-151.5,2021-03-19 12:20:49:875
5.9267,-10.9846,-8.9358,3.135,-4.5835,-8.0829,6.0184,0.1508,3.9609,-0.3582,0.7171,0.8812,8.2704,3.18,40.16,5.73,8.49,27.86,-158.8,2021-03-19 12:20:50:374
0.5986,-5.5236,-8.9214,3.2237,-6.4617,-6.6351,-3.9051,2.6311,-1.9891,0.5627,0.302,-0.1759,2.1352,8.96,38.79,9.77,25.61,41.22,-154.09,2021-03-19 12:20:50:874
6.0775,-4.3182,-4.9065,3.4248,-4.859,-7.7994,-3.8888,0.7534,4.1976,-0.8145,-1.231,1.2782,9.7643,9.45,35.51,13.32,26.37,29.7,-156.29,2021-03-19 12:20:51:374
4.5609,-3.6886,2.9845,4.2623,-4.8375,-7.3893,0.0589,0.1919,1.7207,-1.1548,-0.3352,-2.3326,9.7643,10.29,30.29,21.38,44.36,29.56,-150.02,2021-03-19 12:20:51:875
5.163,-4.8461,-10.1771,3.7337,-4.6955,-7.7577,0.8952,-0.2226,2.3764,-0.0192,-0.9066,0.5843,150.8741,3.61,28.37,24.75,44.64,28.61,-154.3,2021-03-19 12:20:52:375
-1.3394,-17.6581,-6.6602,2.3931,-4.0111,-8.6229,-3.7694,3.3853,1.2732,0.2798,0.874,0.5379,150.8741,14.23,34.16,21.12,38.2,24.14,-164.49,2021-03-19 12:20:52:875
1.1349,-6.9421,-3.634,1.6644,-4.0525,-8.7737,7.9021,-2.0961,-2.3271,-0.6802,0.7888,1.4065,11.2065,20.25,25.46,21.52,57.08,24.41,-169.26,2021-03-19 12:20:53:374
-3.3337,-7.6723,-7.8117,0.6306,-2.7649,-9.3877,3.2028,-2.6723,-1.2121,-0.3185,0.0344,1.0198,5.2028,23.64,14.8,22.02,73.27,18.84,-175.79,2021-03-19 12:20:53:875
1.008,-3.278,-13.7934,1.1217,-3.6741,-9.0229,2.6856,-1.404,1.2649,0.0046,-0.041,0.6432,5.2028,29.73,8.82,25.9,90.21,22.23,-173.33,2021-03-19 12:20:54:374
6.6354,-7.263,-8.3432,0.9687,-4.5916,-8.611,2.9572,-0.6403,-2.6465,-0.0155,0.4354,0.2428,5.2028,26.83,4.51,26.63,102.71,27.92,-173.58,2021-03-19 12:20:54:875
0.6776,-5.4147,-6.2687,1.5089,-5.026,-8.2845,1.4046,-0.2156,-0.0566,0.3388,0.5854,0.2801,5.2028,23.95,0.62,31.17,113.31,30.83,-169.68,2021-03-19 12:20:55:375
-1.3633,-3.9603,-10.5099,3.4109,-5.8981,-7.0532,-0.1633,-0.2627,2.7273,0.0288,0.7168,0.4872,0,19.94,-1.5,35.68,119.1,33.39,-161.41,2021-03-19 12:20:55:874
3.2776,-4.6282,-7.5759,4.0333,-7.5599,-4.7698,-0.6476,0.0708,2.0875,0.8583,-0.2823,0.3525,0,5.8,3.2,37.77,119.87,47.92,-139.9,2021-03-19 12:20:56:375
1.816,-6.8823,-4.9963,3.3239,-8.3667,-3.8885,0.8439,-1.313,-1.0696,0.8913,-0.4051,0.0263,0,1.27,12.17,34.89,124.05,58.56,-139.48,2021-03-19 12:20:56:875
3.6703,-7.9309,-2.9074,3.0311,-8.2122,-4.4207,1.9767,0.8283,-0.9543,-0.3002,0.1987,0.5052,0,7.84,16.18,32.94,112.1,56.87,-145.56,2021-03-19 12:20:57:375
3.2286,-7.4545,-4.0422,3.1429,-7.8533,-4.9617,0.5933,0.4348,-1.0426,0.081,-0.019,0.3345,0,9.62,13.3,33.56,109.4,51.84,-145.77,2021-03-19 12:20:57:875
5.7208,-9.839,-4.3187,3.8911,-7.8573,-4.3923,1.2628,-0.4428,-0.0785,0.0602,1.0176,0.3067,22.0647,9.25,10.48,33.83,115.3,53.12,-145.99,2021-03-19 12:20:58:376
7.3285,-7.8088,-6.2651,3.3281,-8.4404,-3.7221,1.2646,1.6698,-2.7425,-0.3307,1.5888,0.9826,22.0647,2.86,10.33,33.16,117.26,56.01,-137,2021-03-19 12:20:58:875
10.3486,3.8792,-5.0489,8.6928,2.9774,-3.4266,-8.9718,-5.7648,-2.5607,-3.5906,-1.9637,0.5018,22.0647,10.88,-6.02,9.39,122.23,-17.67,-111.51,2021-03-19 12:20:59:374
11.7599,-5.7188,0.0206,9.4513,-1.9473,-1.7468,1.7,1.7177,-5.3516,-2.0225,-0.5328,2.5424,60.3481,-14.49,-8.26,-13.69,238.31,11.45,-100.47,2021-03-19 12:20:59:875
3.2166,-1.1317,10.6899,2.3632,0.0731,9.5174,1.6615,0.1091,0.7663,0.7071,0.1844,-0.9856,60.3481,-5.31,-2.11,-33.76,242.42,-0.43,-13.94,2021-03-19 12:21:00:374
2.1416,2.4679,8.6549,0.4653,1.4056,9.6942,-0.6657,-1.3419,-1.3498,1.7993,-1.8919,-1.339,60.3481,24.85,6.91,-31.45,292.93,-8.24,-2.75,2021-03-19 12:21:00:875
-1.2628,2.7432,8.6908,-1.7532,3.8279,8.8569,0.6754,-0.9852,0.0349,0.1607,-0.0117,-0.463,60.3481,27.3,4.92,-29.71,311.28,-22.98,11.2,2021-03-19 12:21:01:375
-1.5465,2.2392,11.037,-2.0517,4.1061,8.6661,2.3113,-2.7942,2.0344,0.1442,-1.0071,-0.9206,60.3481,25.05,6.36,-30.79,313.54,-22.23,9.33,2021-03-19 12:21:01:874
-6.8362,4.935,8.9649,-3.1983,4.8528,7.8988,-3.0364,-0.7143,1.2144,0.3519,-0.7286,-0.113,60.3481,18.7,7.53,-34.39,348.54,-27.89,21.68,2021-03-19 12:21:02:374
-7.0553,5.2821,2.7427,-7.4478,5.0609,3.8843,0.7015,0.38,-1.1122,0.1635,1.3466,0.069,60.3481,33.24,4.66,-20.7,357.85,-32.39,56.14,2021-03-19 12:21:02:874
