ACCELEROMETER X (m/s²),ACCELEROMETER Y (m/s²),ACCELEROMETER Z (m/s²),GRAVITY X (m/s²),GRAVITY Y (m/s²),GRAVITY Z (m/s²),LINEAR ACCELERATION X (m/s²),LINEAR ACCELERATION Y (m/s²),LINEAR ACCELERATION Z (m/s²),GYROSCOPE X (rad/s),GYROSCOPE Y (rad/s),GYROSCOPE Z (rad/s),MAGNETIC FIELD X (μT),MAGNETIC FIELD Y (μT),MAGNETIC FIELD Z (μT),LOCATION Latitude : ,LOCATION Longitude : ,LOCATION Altitude ( m),LOCATION Altitude-google ( m),LOCATION Speed ( Kmh),LOCATION Accuracy ( m),LOCATION ORIENTATION (°),Satellites in range,Time since start in ms ,YYYY-MO-DD HH-MI-SS_SSS
0.9769,7.6594,2.2831,0.6667,6.544,7.2733,-3.399,-1.5504,2.1015,0.7926,1.1206,-0.853,16.82,-7.69,-33.21,35.885,14.480818,59.79,NaN,1.12,4.179349,232.0,20 / 27,9,2021-05-02 13:31:56:211
20.563,0.652,-2.9435,9.2178,-2.9563,1.5695,4.8973,-2.1765,5.8229,2.2068,-1.8102,1.3972,-7.65,2.11,-31.12,35.885,14.480805,60.05,NaN,1.55,3.80233,232.0,20 / 27,510,2021-05-02 13:31:56:712
-4.9448,0.8853,1.5347,8.9829,-3.5764,1.6395,1.7353,-1.6971,0.2995,-0.1025,-2.1341,1.3271,-27.95,11.83,-25.71,35.885,14.480805,60.05,NaN,1.55,3.80233,232.0,20 / 27,1009,2021-05-02 13:31:57:211
11.9037,-2.7141,2.1009,9.0391,-3.7325,0.7309,1.8655,-0.6042,1.6435,0.2109,-0.959,-0.4565,-30.78,7.66,-23.78,35.885,14.480794,61.37,NaN,0.0,3.790092,,20 / 27,1509,2021-05-02 13:31:57:711
1.6663,-7.081,-3.3407,2.556,-9.4462,-0.6377,0.9351,2.5178,1.123,-0.5664,0.346,0.8407,-27.33,18.96,-19.07,35.885,14.480794,61.37,NaN,0.0,3.790092,,20 / 27,2009,2021-05-02 13:31:58:211
-0.0562,-10.4949,0.0864,-3.1511,-9.2776,-0.4079,0.5844,0.2127,0.3099,0.0396,0.8132,0.3453,-5.84,33.78,-16.98,35.885,14.48078,60.62,NaN,2.02,3.790092,232.2,17 / 27,2509,2021-05-02 13:31:58:711
-1.7716,-7.4641,-1.9391,-2.1616,-8.8465,-3.6382,0.8545,0.0924,2.6313,-1.1014,0.7104,-1.2947,6.99,34.44,-15.59,35.885,14.48078,60.62,NaN,2.02,3.790092,232.2,17 / 27,3009,2021-05-02 13:31:59:211
-0.516,-8.3557,-1.8972,-0.5334,-9.3085,-3.0394,-3.1587,0.9588,0.8638,1.0262,-0.3179,0.7344,-8.81,38.78,-6.64,35.88499,14.480768,59.22,NaN,2.81,3.875481,232.1,19 / 27,3509,2021-05-02 13:31:59:711
-3.39,-9.3697,0.7029,-2.7434,-9.4077,-0.3735,-2.0169,1.0251,0.3048,0.3715,0.5269,0.1356,-9.39,38.65,-9.38,35.88499,14.480768,59.22,NaN,2.81,3.875481,232.1,19 / 27,4009,2021-05-02 13:32:00:211
-1.0304,-10.0065,-0.9957,-3.7833,-9.0475,0.0278,3.9996,-0.7777,0.8399,-0.7077,-0.6064,-0.1388,-4.44,38.1,-13.48,35.884987,14.480758,59.11,NaN,2.16,3.905518,252.0,19 / 27,4595,2021-05-02 13:32:00:797
-5.097,-12.5767,0.4286,-2.1486,-9.5526,-0.5496,0.0,0.0,0.0,-1.3541,-0.0049,-0.5218,-2.73,38.15,-14.21,35.884987,14.480758,59.11,NaN,2.16,3.905518,252.0,19 / 27,4680,2021-05-02 13:32:00:882
-5.2932,-8.959,0.1774,-0.6528,-9.5483,2.1387,0.0,0.0,0.0,0.232,0.1871,0.199,-15.79,39.34,-3.71,35.884983,14.480747,59.45,NaN,3.2,3.836436,252.1,20 / 27,5314,2021-05-02 13:32:01:516
-5.2932,-8.959,0.1774,-0.6528,-9.5483,2.1387,0.0,0.0,0.0,0.232,0.1871,0.199,-15.79,39.34,-3.71,35.884983,14.480747,59.45,NaN,3.2,3.836436,252.1,20 / 27,5314,2021-05-02 13:32:01:516
-3.5719,-9.1687,0.3401,-3.3316,-9.2188,0.2927,0.0,0.0,0.0,0.0269,0.8668,0.2857,-14.55,39.74,-4.25,35.884983,14.480747,59.45,NaN,3.2,3.836436,252.1,20 / 27,5756,2021-05-02 13:32:01:958
-4.0531,-16.9292,-5.8367,-1.9186,-9.2549,-2.6145,0.0,0.0,0.0,0.1504,0.1122,0.1982,4.1,39.89,-10.63,35.884983,14.480747,59.45,NaN,3.2,3.836436,252.1,20 / 27,6132,2021-05-02 13:32:02:334
0.4143,3.0317,-1.8721,-2.8285,-9.354,-0.8201,1.4416,-2.4204,-0.983,3.1558,-3.3549,2.3159,2.56,40.64,-6.83,35.884975,14.480745,59.53,NaN,3.53,3.790092,252.1,20 / 27,6642,2021-05-02 13:32:02:844
1.4067,-15.0676,6.5743,-0.2492,-9.385,-2.8339,1.9123,-5.0705,1.2059,1.4486,7.1219,-1.5587,9.3,38.94,-9.82,35.884975,14.480745,59.53,NaN,3.53,3.790092,252.1,20 / 27,7113,2021-05-02 13:32:03:315
-10.6358,-0.0568,10.5293,4.3744,-8.2141,-3.0926,12.4349,0.0871,1.386,1.1371,-5.1459,0.2043,10.15,38.63,13.55,35.88497,14.48076,59.66,NaN,5.26,3.790092,252.1,20 / 27,7573,2021-05-02 13:32:03:775
-6.7968,-4.9334,-2.5819,-1.9828,-8.9985,-3.3564,5.8958,-25.23,7.5564,1.5019,-1.631,1.4503,18.39,34.07,12.43,35.88497,14.48076,59.66,NaN,5.26,3.790092,252.1,20 / 27,8104,2021-05-02 13:32:04:306
-0.0706,9.2803,2.0662,4.9552,-6.3003,-5.65,-14.7524,0.1188,7.26,0.939,-0.9995,1.4776,19.31,30.76,-2.95,35.88497,14.48076,59.66,NaN,5.26,3.790092,252.1,20 / 27,8575,2021-05-02 13:32:04:777
-0.9108,-0.5752,0.2743,-2.7629,-9.3963,0.4968,8.25,-4.2695,-7.5723,-2.1998,2.211,-2.5462,12.66,32.71,-11.35,35.88497,14.48076,59.66,NaN,5.26,3.790092,252.1,20 / 27,9072,2021-05-02 13:32:05:274
11.3925,-18.8288,0.035,-0.1452,-9.8055,0.0405,-0.452,0.9316,2.0805,0.035,0.306,2.0019,16.2,28.87,-17.67,35.88499,14.480765,60.02,NaN,8.32,3.790092,346.1,20 / 27,9572,2021-05-02 13:32:05:774
-4.6205,-12.0918,-6.0437,4.972,-4.4915,-7.1607,0.0,0.0,0.0,-3.5591,1.9927,-3.5431,18.68,26.21,-18.86,35.88499,14.480765,60.02,NaN,8.32,3.790092,346.1,20 / 27,10072,2021-05-02 13:32:06:274
-30.0841,-4.8736,8.3689,7.3517,-6.0982,-2.2217,-23.3501,-45.8835,7.6243,-9.7339,-11.4615,2.314,25.36,21.2,-5.21,35.885017,14.480749,59.22,NaN,10.48,3.790092,335.7,20 / 27,10572,2021-05-02 13:32:06:774
9.9727,-23.9617,-18.7493,-2.1373,-8.6724,-4.0487,-22.4162,-12.6776,7.9132,3.7674,-0.1581,2.6098,18.37,32.23,11.97,35.885017,14.480749,59.22,NaN,10.48,3.790092,335.7,20 / 27,11073,2021-05-02 13:32:07:275
-8.4344,-0.6206,5.6097,-0.3691,-9.6152,-1.8925,-8.2006,-10.669,3.1236,0.348,-3.4524,-1.8448,20.78,29.02,-16.46,35.885044,14.480737,59.1,NaN,11.45,3.790092,345.3,20 / 27,11574,2021-05-02 13:32:07:776
-2.0216,1.0397,-1.3836,-3.284,-9.233,0.3698,7.6874,10.7497,-3.5434,-2.3429,0.9508,-0.8999,5.78,36.25,-15.02,35.885044,14.480737,59.1,NaN,11.45,3.790092,345.3,20 / 27,12073,2021-05-02 13:32:08:275
-6.8183,-8.7269,7.6469,-0.7146,-9.6595,-1.534,-3.4097,9.1045,-2.91,1.0354,-0.8807,1.5511,-4.89,37.76,-10.83,35.885063,14.480718,59.37,NaN,9.72,3.790092,322.5,19 / 27,12572,2021-05-02 13:32:08:774
-6.7693,-6.23,3.5339,0.9348,-9.5789,-1.882,-0.7833,-14.0486,2.1984,-1.1912,-2.141,-1.9391,-12.26,37.04,-8.92,35.885063,14.480718,59.37,NaN,9.72,3.790092,322.5,19 / 27,13072,2021-05-02 13:32:09:274
-1.9008,-27.3422,-5.3327,-2.8267,-9.3775,-0.4928,0.0,0.0,0.0,1.2996,-0.7646,2.1844,-19.35,36.1,-2.0,35.885075,14.480694,59.54,NaN,9.18,3.790092,307.9,20 / 27,13575,2021-05-02 13:32:09:777
0.382,-19.8763,-7.6765,-1.1646,-9.728,-0.4253,1.7032,0.3855,1.2839,0.3063,-0.5046,-0.8332,-21.53,34.34,9.43,35.885075,14.480694,59.54,NaN,9.18,3.790092,307.9,20 / 27,14072,2021-05-02 13:32:10:274
-8.6474,-6.8046,2.6288,1.7703,-9.5417,-1.4113,-4.7504,0.6191,3.3996,1.2455,-0.7892,0.6869,-15.49,35.31,18.23,35.88509,14.48067,59.86,NaN,8.75,4.292726,297.5,20 / 27,14572,2021-05-02 13:32:10:774
1.1767,2.4141,-1.3143,-2.3836,-9.3252,1.8789,3.3151,-1.3639,-4.5806,-2.396,0.2075,-2.5129,-12.58,31.67,26.5,35.88509,14.48067,59.86,NaN,8.75,4.292726,297.5,20 / 27,15072,2021-05-02 13:32:11:274
3.5554,-19.0923,6.3888,0.1679,-9.7826,-0.6659,-7.6036,-5.1934,1.6138,0.4368,-0.9801,2.0833,-7.42,29.65,30.49,35.88509,14.480649,58.9,NaN,7.56,4.101061,286.5,20 / 27,15572,2021-05-02 13:32:11:774
-4.1584,3.1825,-0.0715,1.385,-9.5284,-1.8606,-9.2624,7.8609,2.8181,0.3447,-0.9184,1.9785,1.17,31.22,29.56,35.88509,14.480649,58.9,NaN,7.56,4.101061,286.5,20 / 27,16072,2021-05-02 13:32:12:274
0.4406,-3.5833,-0.676,-2.5401,-9.4279,0.9127,7.207,9.9667,-3.8672,-0.1083,-2.7551,1.083,14.98,27.58,27.24,35.8851,14.480637,56.58,NaN,9.4,4.164779,327.3,20 / 27,16572,2021-05-02 13:32:12:774
-5.5998,-4.6307,1.6295,-0.5681,-9.6729,-1.5108,2.3844,-12.5848,11.0972,1.3071,-2.0653,-0.5928,26.49,26.74,12.79,35.8851,14.480637,56.58,NaN,9.4,4.164779,327.3,20 / 27,17071,2021-05-02 13:32:13:273
11.444,-26.3593,-9.4373,-0.1225,-9.665,-1.656,-3.8672,-0.0026,-0.0661,0.1451,1.6132,-0.4415,6.56,31.21,-19.91,35.885113,14.480631,54.84,NaN,8.28,4.069244,332.0,20 / 27,17572,2021-05-02 13:32:13:774
8.7709,-4.9813,4.8972,-2.2632,-8.6247,-4.082,2.582,2.5475,-3.2654,0.6904,1.0736,-0.1639,11.99,32.54,-15.8,35.885113,14.480631,54.84,NaN,8.28,4.069244,332.0,20 / 27,18071,2021-05-02 13:32:14:273
0.5447,-9.6129,0.3209,-0.2965,-9.7895,-0.4977,2.6344,-0.3283,0.8685,0.2708,1.1382,0.1051,27.39,30.32,4.6,35.885128,14.480624,54.64,NaN,10.48,4.173018,335.0,20 / 27,18572,2021-05-02 13:32:14:774
-0.4427,-8.7784,-3.0823,0.544,-9.662,-1.5875,-2.4752,0.557,2.4455,-0.97,-0.903,-1.3628,27.19,29.21,10.68,35.885128,14.480624,54.64,NaN,10.48,4.173018,335.0,20 / 27,19072,2021-05-02 13:32:15:274
0.0455,-13.3187,0.8345,1.0508,-9.5783,-1.8227,-2.4356,-1.9023,-4.9225,0.8582,1.789,0.4193,22.31,32.0,14.87,35.88514,14.480613,51.87,NaN,10.55,4.141621,321.4,19 / 27,19573,2021-05-02 13:32:15:775
1.2176,-10.0496,-0.8809,0.2841,-9.7712,-0.7831,-2.5314,1.5797,-0.8287,0.1762,0.8515,0.3647,25.19,32.02,9.99,35.88514,14.480613,51.87,NaN,10.55,4.141621,321.4,19 / 27,20160,2021-05-02 13:32:16:362
-0.821,-10.4865,0.3245,0.8163,-9.6682,-1.4246,-0.5444,-0.5024,2.112,-1.1962,-0.3433,-0.9201,27.41,29.76,11.32,35.885136,14.480607,49.56,NaN,9.61,3.902884,316.0,19 / 27,20572,2021-05-02 13:32:16:774
12.0951,-12.02,0.1307,-3.0E-4,-9.5129,-2.3823,-5.2264,1.1105,-1.1742,-0.066,-0.3412,0.864,23.55,34.44,3.04,35.885136,14.480607,49.56,NaN,9.61,3.902884,316.0,19 / 27,21072,2021-05-02 13:32:17:274
-0.2512,-10.3418,-1.0866,-0.6222,-9.7848,0.2029,0.9814,-0.3005,-0.5452,-0.1535,-0.2987,-0.0557,19.39,33.44,-16.67,35.885136,14.480607,49.56,NaN,9.61,3.902884,316.0,19 / 27,21576,2021-05-02 13:32:17:778
-1.4435,-9.7026,-0.6257,-0.6758,-9.7832,0.041,-0.5899,0.2226,-0.081,-0.0284,-0.0829,0.0455,15.79,31.95,-22.77,35.885136,14.480607,49.56,NaN,9.61,3.902884,316.0,19 / 27,22072,2021-05-02 13:32:18:274
-1.4961,-9.9072,-1.835,-0.9904,-9.7432,-0.5093,-0.0737,0.0627,-0.2666,-0.0815,-0.0582,0.0241,14.48,32.53,-22.9,35.88508,14.480672,53.42,NaN,0.0,3.790092,,19 / 27,22572,2021-05-02 13:32:18:774
-1.2485,-9.6033,-1.4231,-1.0135,-9.6885,-1.1294,-0.0242,0.0885,-0.1021,-0.0186,-0.0713,-0.0078,13.79,33.83,-21.41,35.88508,14.480672,53.42,NaN,0.0,3.790092,,19 / 27,23072,2021-05-02 13:32:19:274
-1.1898,-9.6703,-1.3334,-1.1096,-9.6687,-1.2063,-0.0637,0.0619,-0.068,-0.0199,-0.0017,0.0195,13.76,34.15,-21.06,35.885044,14.480712,53.2,NaN,0.0,3.835361,,19 / 27,23575,2021-05-02 13:32:19:777
-1.3968,-9.6308,-1.1824,-1.2699,-9.6501,-1.1973,-0.0421,0.0219,-0.0361,0.0272,0.0058,0.0241,14.26,34.03,-20.96,35.885044,14.480712,53.2,NaN,0.0,3.835361,,19 / 27,24071,2021-05-02 13:32:20:273
-1.4351,-9.888,-1.3238,-1.2958,-9.6809,-0.8784,0.1231,0.0449,0.177,0.0463,0.1362,-0.0628,14.8,33.39,-21.52,35.885036,14.480723,53.2,NaN,0.0,3.887055,,19 / 27,24575,2021-05-02 13:32:20:777
0.0864,-9.8462,-0.9491,-1.5878,-9.6299,-0.9561,1.5685,-0.2723,0.1274,-0.2317,-0.5204,0.0501,14.86,32.9,-22.07,35.885036,14.480723,53.2,NaN,0.0,3.887055,,19 / 27,25072,2021-05-02 13:32:21:274
2.0016,-10.1216,-1.3813,-0.001,-9.3161,-3.0627,0.923,-1.1105,0.7289,-0.341,-0.1822,-1.4564,8.03,36.8,-18.46,35.885036,14.480723,53.2,NaN,0.0,3.887055,,19 / 27,25572,2021-05-02 13:32:21:774
1.1503,-9.6045,5.5104,1.0394,-9.6186,-1.6038,4.3358,-1.3491,-0.0684,0.8541,-0.0588,0.7002,-13.7,34.45,-15.02,35.885036,14.480723,53.2,NaN,0.0,3.887055,,19 / 27,26072,2021-05-02 13:32:22:274
-0.2118,-9.39,0.8369,-1.1468,-9.7392,0.0512,0.8889,0.2839,0.7404,0.5824,-0.3754,0.4725,-14.35,34.04,-17.23,35.885036,14.480723,53.2,NaN,0.0,3.887055,,19 / 27,26575,2021-05-02 13:32:22:777
-1.2197,-8.6767,-2.5519,1.3998,-9.3289,-2.6801,-1.9104,-1.9587,1.4017,-0.8491,0.0805,-1.2919,-17.73,33.48,-13.15,35.885036,14.480723,53.2,NaN,0.0,3.887055,,19 / 27,27072,2021-05-02 13:32:23:274
2.2457,-11.0109,4.0965,0.0276,-9.73,-1.2232,-0.1798,1.4072,2.9049,0.1297,-1.0896,0.5989,-18.28,32.12,-14.48,35.885025,14.480718,55.94,NaN,3.06,3.790092,250.9,18 / 27,27572,2021-05-02 13:32:23:774
1.0379,-9.693,3.8453,-1.0996,-9.6733,-1.1784,1.8281,-0.1524,2.0385,-0.3691,0.3512,0.1129,-9.45,33.1,-19.82,35.885025,14.480718,55.94,NaN,3.06,3.790092,250.9,18 / 27,28073,2021-05-02 13:32:24:275
-0.7744,-9.3924,-2.1532,-0.2683,-8.9254,-4.0541,-1.1289,0.7712,3.1192,-0.1038,2.0002,0.9882,0.63,36.51,-14.62,35.885025,14.480718,55.94,NaN,3.06,3.790092,250.9,19 / 27,28574,2021-05-02 13:32:24:776
0.8668,-7.6711,-0.3876,0.0929,-9.8026,-0.2655,4.096,-1.3174,0.3472,-0.4523,-0.5137,-0.0628,17.15,33.45,-15.77,35.885025,14.480718,55.94,NaN,3.06,3.790092,250.9,19 / 27,29072,2021-05-02 13:32:25:274
-5.7482,-13.0448,-12.0924,-0.9875,-9.151,-3.3846,1.0614,0.6712,-2.2802,-0.4994,2.3776,-0.2265,13.75,36.38,-11.93,35.885017,14.480717,57.63,NaN,2.81,3.790092,185.6,18 / 27,29575,2021-05-02 13:32:25:777
0.7017,-13.7438,-0.5192,-0.1818,-9.7931,0.4825,-2.1103,-0.6483,-1.9428,0.6441,0.877,0.2285,14.93,36.14,-10.65,35.885017,14.480717,57.63,NaN,2.81,3.790092,185.6,18 / 27,30072,2021-05-02 13:32:26:274
-0.2225,-9.9503,0.5797,0.9088,-9.6098,-1.7308,-1.56,-0.2398,2.4592,-1.05,-0.4752,-0.2074,16.08,33.18,-18.68,35.885002,14.480717,58.28,NaN,3.82,3.790092,201.6,19 / 27,30575,2021-05-02 13:32:26:777
0.2025,-10.6914,-0.7804,1.9049,-9.131,-3.0277,-1.1732,1.3726,0.7733,2.0665,-0.1492,1.572,11.25,39.93,-8.1,35.885002,14.480717,58.28,NaN,3.82,3.790092,201.6,19 / 27,31072,2021-05-02 13:32:27:274
0.1475,-8.843,0.2468,0.8524,-9.7616,0.3948,-0.6145,2.8004,-0.4692,-0.044,-0.6608,-0.2443,18.18,31.84,-20.52,35.88499,14.48072,58.79,NaN,4.32,3.790092,183.9,18 / 27,31575,2021-05-02 13:32:27:777
3.3924,-8.1882,-7.2084,2.4038,-9.2582,-2.1628,-2.7678,0.1221,0.1099,-2.2049,0.1997,-2.4906,8.0,35.18,-20.09,35.88499,14.48072,58.79,NaN,4.32,3.790092,183.9,18 / 27,32072,2021-05-02 13:32:28:274
-10.078,-6.3317,2.3824,2.3167,-9.133,-2.7188,2.2901,1.0701,9.9584,-0.4736,1.0508,1.5158,-6.53,37.91,-15.35,35.884975,14.480726,58.11,NaN,4.5,3.790092,167.9,19 / 27,32572,2021-05-02 13:32:28:774
5.8382,8.866,-15.6787,2.8563,-8.5911,-3.769,-6.3783,2.7363,-6.7074,1.8127,0.047,4.6666,-7.37,39.13,-13.11,35.884975,14.480726,58.11,NaN,4.5,3.790092,167.9,19 / 27,33128,2021-05-02 13:32:29:330
2.4314,-19.9325,2.8289,0.4536,-9.3795,-2.8267,5.6495,-22.947,-4.6222,2.7569,3.1442,0.2234,12.66,39.15,-7.31,35.884964,14.480746,58.19,NaN,7.38,3.790092,128.4,19 / 27,33573,2021-05-02 13:32:29:775
-17.3943,-7.5323,0.9482,0.9581,-4.5579,-8.63,4.5383,4.1051,22.2336,2.2331,-4.0331,1.6329,8.95,23.14,26.49,35.884964,14.480746,58.19,NaN,7.38,3.790092,128.4,19 / 27,34072,2021-05-02 13:32:30:274
8.7254,-21.3368,-2.1018,-1.7583,-9.5977,-0.9815,-1.4453,-3.5786,-4.0637,0.815,-0.8031,3.942,15.97,24.71,33.73,35.88496,14.480771,58.81,NaN,7.02,3.790092,96.5,18 / 27,34576,2021-05-02 13:32:30:778
-9.5596,1.5843,5.8825,3.5105,-9.1444,-0.4753,-11.6492,-2.25,6.8193,-1.2338,-3.8799,-2.8423,28.33,27.05,18.28,35.88496,14.480771,58.81,NaN,7.02,3.790092,96.5,18 / 27,35072,2021-05-02 13:32:31:274
3.213,-2.3874,0.3628,-2.1426,-9.1843,2.6885,9.5405,11.1211,-2.9225,-2.3321,0.0742,-2.5411,32.84,27.4,5.19,35.884964,14.480792,59.29,NaN,6.23,3.790092,80.9,19 / 26,35572,2021-05-02 13:32:31:774
4.7309,-14.8008,-4.6143,-3.0558,-8.9363,2.6411,12.3243,-17.9015,-9.098,1.4967,-0.7709,0.7936,26.62,33.07,5.83,35.884964,14.480792,59.29,NaN,6.23,3.790092,80.9,19 / 26,36073,2021-05-02 13:32:32:275
2.4422,-7.7321,-1.7402,2.2918,-9.4008,-1.5947,-13.5379,12.5017,-4.3899,0.1608,-0.7886,0.2917,29.32,29.45,1.5,35.884983,14.480811,58.47,NaN,10.15,3.790092,34.6,19 / 27,36573,2021-05-02 13:32:32:775
9.731,-10.8601,-1.2724,0.4881,-9.7943,0.0545,3.423,2.7942,-2.0755,-0.4699,-0.8283,-2.4561,29.26,29.59,-0.82,35.884983,14.480811,58.47,NaN,10.15,3.790092,34.6,19 / 27,37072,2021-05-02 13:32:33:274
8.4921,1.6959,0.4167,-3.9609,-8.8922,1.1877,5.0695,5.2535,-5.3764,-2.2838,0.9526,-1.8704,29.18,28.85,3.11,35.885014,14.480825,58.13,NaN,10.66,3.790092,17.5,19 / 27,37572,2021-05-02 13:32:33:774
-2.4036,-36.964,-10.9696,1.19,-9.5655,-1.8045,-2.1377,2.3259,3.279,1.2359,-0.4085,1.4253,26.33,31.76,-1.95,35.885014,14.480825,58.13,NaN,10.66,3.790092,17.5,19 / 27,38072,2021-05-02 13:32:34:274
-9.4469,6.1908,-0.3242,2.2832,-9.2471,-2.3341,-10.6275,8.9966,5.463,0.5128,-0.2859,0.1767,27.44,30.12,-5.05,35.885036,14.480834,57.48,NaN,10.22,3.790092,9.1,19 / 27,38572,2021-05-02 13:32:34:774
-23.359,-45.0359,23.4132,-3.3688,-8.6335,-3.2068,19.7331,11.3516,6.2932,-1.8437,-11.5304,5.9183,26.12,26.64,6.89,35.885036,14.480834,57.48,NaN,10.22,3.790092,9.1,19 / 27,39072,2021-05-02 13:32:35:274
5.4335,-1.8081,-5.9587,-3.532,-9.147,0.1697,10.4131,2.3939,-1.5567,0.5847,-2.6001,-0.9238,13.63,36.8,-0.54,35.885067,14.48084,57.26,NaN,11.74,3.790092,0.6,19 / 27,39572,2021-05-02 13:32:35:774
-7.1055,-24.492,10.9819,1.4956,-9.6657,-0.713,-6.4869,12.4686,0.0093,0.5256,1.0684,1.6685,-8.1,35.4,-8.98,35.885067,14.48084,57.26,NaN,11.74,3.790092,0.6,19 / 27,40072,2021-05-02 13:32:36:274
-6.3275,-4.0466,2.2424,3.7652,-9.0404,-0.514,-3.1949,-33.2074,-2.2338,0.8249,-0.3972,0.5911,-10.72,33.66,-15.73,35.885098,14.480831,58.02,NaN,11.48,3.790092,333.9,19 / 27,40576,2021-05-02 13:32:36:778
9.4723,0.7107,-4.247,-0.8631,-9.282,3.0445,7.697,10.5745,-8.219,1.7153,-0.7671,1.1537,-20.79,32.66,-11.54,35.885098,14.480831,58.02,NaN,11.48,3.790092,333.9,19 / 27,41073,2021-05-02 13:32:37:275
-8.3372,-29.6082,-0.4953,2.5427,-9.4285,-0.8993,-6.6364,9.7898,-2.7962,1.1304,-1.1165,0.9002,-26.44,28.44,-9.27,35.885113,14.480803,59.16,NaN,10.69,3.790092,308.9,19 / 27,41575,2021-05-02 13:32:37:777
-6.4316,-3.4624,0.4373,4.678,-8.5517,-1.0752,2.2153,-13.3414,0.2971,0.7332,1.2825,1.5926,-23.08,28.78,-11.98,35.885113,14.480803,59.16,NaN,10.69,3.790092,308.9,19 / 27,42073,2021-05-02 13:32:38:275
-0.4092,1.6657,-2.5986,-0.1144,-9.5325,2.2996,2.589,10.9649,-3.1889,-0.2103,-1.5392,0.0066,-26.36,27.34,-8.41,35.88512,14.480776,60.26,NaN,9.32,3.790092,297.1,20 / 27,42572,2021-05-02 13:32:38:774
4.1372,-22.9537,10.9089,2.0153,-9.5917,-0.3297,2.0106,5.9608,1.616,1.0282,-0.7187,1.9066,-30.6,25.53,-3.29,35.88512,14.480776,60.26,NaN,9.32,3.790092,297.1,20 / 27,43072,2021-05-02 13:32:39:274
-2.8645,-5.3118,0.1271,3.6158,-9.0536,-1.0628,1.1227,-1.5494,1.7948,0.2578,0.1655,1.8657,-28.85,27.23,-0.96,35.885105,14.480761,59.97,NaN,6.12,3.790092,217.7,20 / 27,43573,2021-05-02 13:32:39:775
4.002,-4.8006,6.2812,0.7462,-9.7705,0.3875,4.1389,8.7646,-3.4586,-1.2238,1.3327,-0.3616,-30.72,25.75,2.75,35.885105,14.480761,59.97,NaN,6.12,3.790092,217.7,20 / 27,44072,2021-05-02 13:32:40:274
-3.5922,-18.277,6.8426,3.8435,-8.9352,-1.2492,-4.7418,-8.3868,-2.6597,-0.3135,0.0573,-0.0893,-32.96,22.59,1.24,35.885082,14.48075,59.9,NaN,6.48,3.790092,211.7,19 / 27,44572,2021-05-02 13:32:40:774
3.7122,-11.2158,-3.5527,0.6623,-9.739,0.94,0.2933,0.6076,0.3644,-1.8191,-0.4445,-2.5827,-28.77,26.17,-3.81,35.885082,14.48075,59.9,NaN,6.48,3.790092,211.7,19 / 27,45072,2021-05-02 13:32:41:274
-5.0862,-14.6297,-6.0281,3.2779,-9.1725,-1.136,-0.9535,3.3433,0.624,1.6568,0.0188,1.2295,-33.95,20.01,-1.82,35.885067,14.480743,60.59,NaN,4.75,3.790092,208.2,20 / 27,45572,2021-05-02 13:32:41:774
3.3123,-8.9761,-3.2103,0.6881,-9.7509,0.786,1.6107,0.6014,-0.3677,0.0913,0.0855,0.7649,-29.79,25.13,-5.43,35.885067,14.480743,60.59,NaN,4.75,3.790092,208.2,20 / 27,46073,2021-05-02 13:32:42:275
0.3018,-4.8078,-0.4499,4.6397,-8.2226,-2.652,-6.9765,1.426,0.1763,0.6336,-0.055,1.3652,-30.17,24.23,-1.1,35.885056,14.480737,60.44,NaN,3.85,3.790092,210.3,20 / 27,46576,2021-05-02 13:32:42:778
1.1527,-9.2285,0.4804,2.0813,-9.4747,-1.438,-3.3385,0.313,1.5979,-0.9835,2.0746,0.1055,-32.68,22.42,0.84,35.885056,14.480737,60.44,NaN,3.85,3.790092,210.3,20 / 27,47073,2021-05-02 13:32:43:275
1.8712,-12.8136,-2.4754,2.5103,-9.1052,-2.6389,4.4913,4.2991,4.7321,0.1286,1.7635,2.2129,-11.32,34.66,-11.36,35.885044,14.480733,59.95,NaN,4.1,3.790092,197.7,20 / 27,47573,2021-05-02 13:32:43:775
2.0566,-9.1304,-0.7074,1.0143,-9.7498,-0.2867,0.1775,3.7017,-0.1444,-0.0156,-0.2799,-0.4365,13.32,35.05,-13.15,35.885044,14.480733,59.95,NaN,4.1,3.790092,197.7,20 / 27,48072,2021-05-02 13:32:44:274
0.1032,-2.3731,1.8855,2.2623,-8.8975,-3.4477,0.8163,3.887,1.0774,-0.2973,1.2661,1.3081,7.88,36.86,-10.46,35.885036,14.480742,59.39,NaN,4.64,3.790092,128.1,20 / 27,48576,2021-05-02 13:32:44:778
6.0643,-7.5873,1.1626,-0.7168,-9.7654,0.5417,-1.1538,-1.182,0.7994,0.5455,-0.0638,0.3286,20.41,33.31,-1.73,35.885036,14.480742,59.39,NaN,4.64,3.790092,128.1,20 / 27,49072,2021-05-02 13:32:45:274
-3.4187,-15.81,2.4111,0.5324,-9.7756,0.5705,4.9178,-6.06,2.8911,-1.5603,-2.2713,-0.9418,20.87,33.73,10.1,35.885025,14.480754,58.58,NaN,3.78,3.790092,163.3,20 / 27,49575,2021-05-02 13:32:45:777
3.1352,-10.8912,-0.3398,1.0099,-9.704,-0.9917,6.915,-3.0577,1.7356,2.0456,0.7654,1.2144,15.13,33.73,20.34,35.885025,14.480754,58.58,NaN,3.78,3.790092,163.3,20 / 27,50072,2021-05-02 13:32:46:274
6.1911,-9.9144,0.1295,2.1017,-9.5193,-1.0661,1.4659,-5.622,0.0915,-1.5978,-2.42,-2.1497,20.7,34.33,11.88,35.885017,14.480768,58.15,NaN,4.32,3.790092,124.4,19 / 27,50575,2021-05-02 13:32:46:777
-7.0804,-47.6922,-11.6052,3.0896,-8.8746,-2.8046,3.2153,0.2159,-2.2982,-2.6357,-4.9421,0.9861,15.14,35.76,15.35,35.885017,14.480768,58.15,NaN,4.32,3.790092,124.4,19 / 27,51072,2021-05-02 13:32:47:274
-0.5447,-7.9466,-4.7366,0.4898,-8.0403,-5.5933,-14.9679,-13.0038,-11.3867,-0.0773,-3.4747,-1.0936,18.12,36.58,10.65,35.885014,14.480796,58.19,NaN,8.06,3.790092,89.5,19 / 27,51572,2021-05-02 13:32:47:774
7.8742,-0.9987,-5.0584,1.9064,-9.5639,-1.0337,7.0769,4.09,-4.161,-2.3017,-0.0872,-3.5938,18.43,36.4,13.66,35.885014,14.480796,58.19,NaN,8.06,3.790092,89.5,19 / 27,52072,2021-05-02 13:32:48:274
-8.3913,-11.5567,-3.5432,3.0064,-8.3326,-4.2072,-10.0496,-4.7269,-5.3342,-0.9306,0.9161,1.0452,1.04,40.33,18.74,35.885017,14.480823,58.15,NaN,7.85,3.790092,82.4,19 / 27,52572,2021-05-02 13:32:48:774
20.8337,-52.6442,-4.9352,1.8777,-9.2477,-2.6691,10.4166,-17.9664,4.1322,-3.296,-0.0554,-1.9515,22.33,33.9,13.77,35.885017,14.480823,58.15,NaN,7.85,3.790092,82.4,19 / 27,53072,2021-05-02 13:32:49:274
7.7904,-3.801,-0.3326,0.4192,-9.7933,-0.2929,0.8795,-9.549,-1.5188,1.1189,0.5777,1.2415,20.28,38.8,3.87,35.88502,14.480844,57.9,NaN,7.88,3.790092,68.3,20 / 27,53574,2021-05-02 13:32:49:776
26.5795,-47.5436,-18.3781,-0.1923,-9.6138,-1.9258,-3.8757,2.0144,2.9897,1.0274,-1.9781,2.3157,19.41,38.76,4.7,35.88502,14.480844,57.9,NaN,7.88,3.790092,68.3,20 / 27,54072,2021-05-02 13:32:50:274
-0.1615,-20.8149,12.0042,0.7189,-8.0948,-5.4888,-9.4778,5.053,8.5136,1.7566,1.5994,5.5641,18.58,36.56,7.69,35.885036,14.480856,58.47,NaN,7.52,3.790092,36.5,20 / 27,54576,2021-05-02 13:32:50:778
-36.4681,-37.4106,24.6847,-1.0892,-5.5008,-8.0452,5.2738,-15.9585,26.7338,2.3206,5.3929,-1.2341,19.93,30.22,8.85,35.885036,14.480856,58.47,NaN,7.52,3.790092,36.5,20 / 27,55072,2021-05-02 13:32:51:274
-12.3763,-8.7174,-4.7462,-3.1093,-8.3246,-4.1479,-7.0426,-3.0528,-2.4593,-0.7119,0.1419,-0.1521,9.14,39.31,-0.83,35.88506,14.480855,58.46,NaN,8.89,3.790092,359.2,20 / 27,55572,2021-05-02 13:32:51:774
-0.469,-5.7679,-2.0157,0.6592,-8.4713,-4.8961,-0.2221,1.4476,2.0602,0.2712,-0.7171,-1.433,-0.87,40.42,-3.76,35.88506,14.480855,58.46,NaN,8.89,3.790092,359.2,20 / 27,56074,2021-05-02 13:32:52:276
1.2236,-9.8629,-1.3597,0.5343,-9.781,-0.4664,1.6829,1.256,-0.6055,0.482,-0.129,0.6762,-8.86,37.17,-12.02,35.885075,14.480851,59.47,NaN,6.73,3.790092,354.2,20 / 27,56573,2021-05-02 13:32:52:775
-1.5224,-10.1456,-1.8625,1.4773,-9.3718,-2.4815,-1.5397,-1.1039,0.6185,-1.4888,-0.5893,-1.2692,-1.74,33.23,-22.95,35.885075,14.480851,59.47,NaN,6.73,3.790092,354.2,20 / 27,57073,2021-05-02 13:32:53:275
-0.1304,-13.5823,-10.9816,0.2221,-9.7292,-1.2096,1.4489,-0.7468,0.1774,0.7707,1.3095,-0.1605,-9.82,36.29,-14.01,35.88509,14.480837,60.1,NaN,6.7,3.790092,326.9,18 / 27,57573,2021-05-02 13:32:53:775
-2.1954,-11.6596,-3.0392,-1.1472,-9.738,0.1626,2.996,-2.8622,-0.3939,-1.063,-0.6875,-0.2072,-1.48,32.46,-22.95,35.88509,14.480837,60.1,NaN,6.7,3.790092,326.9,18 / 27,58073,2021-05-02 13:32:54:275
2.5068,-11.3773,-9.4911,2.3633,-8.84,-3.5269,3.8531,-1.991,-2.6221,1.0888,0.3621,-0.2094,-12.66,35.25,-13.14,35.885094,14.480822,60.93,NaN,5.9,3.790092,321.1,19 / 27,58572,2021-05-02 13:32:54:774
2.843,-11.8896,-6.4244,0.6334,-9.7121,-1.2019,-6.2202,-2.9236,-0.3109,0.3424,0.8246,1.1524,-14.66,34.1,-15.2,35.885094,14.480822,60.93,NaN,5.9,3.790092,321.1,19 / 27,59072,2021-05-02 13:32:55:274
-2.5196,-9.0227,-1.4088,-2.3122,-9.5178,-0.4852,0.0,0.0,0.0,0.3702,0.5391,-0.0779,-13.38,33.73,-17.09,35.885098,14.480808,60.82,NaN,5.18,3.790092,318.7,19 / 27,59530,2021-05-02 13:32:55:732
-2.5196,-9.0227,-1.4088,-2.3122,-9.5178,-0.4852,0.0,0.0,0.0,0.3702,0.5391,-0.0779,-13.38,33.73,-17.09,35.885098,14.480808,60.82,NaN,5.18,3.790092,318.7,19 / 27,59530,2021-05-02 13:32:55:732
1.0451,-10.7058,0.673,1.0984,-9.7441,0.1256,0.0,0.0,0.0,-0.7147,-0.7628,-1.4219,-5.37,32.01,-23.35,35.885094,14.480799,59.46,NaN,3.35,3.790092,309.4,19 / 27,59960,2021-05-02 13:32:56:162
1.0451,-10.7058,0.673,1.0984,-9.7441,0.1256,0.0,0.0,0.0,-0.7147,-0.7628,-1.4219,-5.37,32.01,-23.35,35.885094,14.480799,59.46,NaN,3.35,3.790092,309.4,19 / 27,59961,2021-05-02 13:32:56:163
0.0203,-8.9231,0.2515,0.0273,-9.8026,0.2797,0.0,0.0,0.0,0.2492,-0.3825,0.4099,-4.51,29.96,-24.13,35.88509,14.480786,59.57,NaN,4.07,3.790092,291.6,19 / 27,60370,2021-05-02 13:32:56:572
2.9545,-8.6539,7.9463,2.539,-8.3498,4.4726,0.0,0.0,0.0,0.2492,-0.3825,0.4099,-4.51,29.96,-24.13,35.88509,14.480786,59.57,NaN,4.07,3.790092,291.6,19 / 27,60373,2021-05-02 13:32:56:575
2.9545,-8.6539,7.9463,2.539,-8.3498,4.4726,0.0,0.0,0.0,0.211,0.4316,-0.1029,-21.64,30.66,-13.47,35.885082,14.480772,59.83,NaN,4.1,3.790092,282.2,20 / 27,60770,2021-05-02 13:32:56:972
2.9545,-8.6539,7.9463,2.539,-8.3498,4.4726,0.0,0.0,0.0,0.211,0.4316,-0.1029,-21.64,30.66,-13.47,35.885082,14.480772,59.83,NaN,4.1,3.790092,282.2,20 / 27,60770,2021-05-02 13:32:56:972
3.2847,-7.1779,-1.5619,-1.3258,-9.1538,-3.2588,0.0,0.0,0.0,0.947,-0.3541,0.1182,-18.48,31.88,-15.51,35.88508,14.480758,59.75,NaN,4.28,3.790092,275.9,19 / 27,61219,2021-05-02 13:32:57:421
3.2847,-7.1779,-1.5619,-1.3258,-9.1538,-3.2588,0.0,0.0,0.0,0.947,-0.3541,0.1182,-18.48,31.88,-15.51,35.88508,14.480758,59.75,NaN,4.28,3.790092,275.9,19 / 27,61219,2021-05-02 13:32:57:421
1.7456,-9.2752,0.4274,1.7199,-9.6484,0.348,0.0,0.0,0.0,0.1025,-0.0593,-0.1368,-15.36,29.26,-23.44,35.88508,14.480748,59.87,NaN,3.67,3.790092,282.7,19 / 27,61697,2021-05-02 13:32:57:899
1.7456,-9.2752,0.4274,1.7199,-9.6484,0.348,0.0,0.0,0.0,0.1025,-0.0593,-0.1368,-15.36,29.26,-23.44,35.88508,14.480748,59.87,NaN,3.67,3.790092,282.7,19 / 27,61698,2021-05-02 13:32:57:900
4.0259,-12.2258,-2.4431,2.2375,-9.5473,-0.1146,0.0,0.0,0.0,0.2592,0.1332,0.2595,-13.65,33.95,-17.02,35.88508,14.480748,59.87,NaN,3.67,3.790092,282.7,19 / 27,62189,2021-05-02 13:32:58:391
4.0259,-12.2258,-2.4431,2.2375,-9.5473,-0.1146,0.0,0.0,0.0,0.2592,0.1332,0.2595,-13.65,33.95,-17.02,35.88508,14.480748,59.87,NaN,3.67,3.790092,282.7,19 / 27,62189,2021-05-02 13:32:58:391
-0.2082,-9.8031,-1.8182,0.4214,-9.6324,-1.7918,0.0,0.0,0.0,-0.5562,0.0562,-0.5284,-4.4,32.56,-23.74,35.88508,14.480748,59.87,NaN,3.67,3.790092,282.7,19 / 27,62626,2021-05-02 13:32:58:828
-0.2082,-9.8031,-1.8182,0.4214,-9.6324,-1.7918,0.0,0.0,0.0,-0.5562,0.0562,-0.5284,-4.4,32.56,-23.74,35.88508,14.480748,59.87,NaN,3.67,3.790092,282.7,19 / 27,62627,2021-05-02 13:32:58:829
0.8919,-9.6715,0.3138,0.8001,-9.7737,0.0667,0.0,0.0,0.0,-0.0405,-0.1397,-0.0264,2.27,30.94,-26.13,35.88507,14.480747,59.18,NaN,0.0,3.790092,,18 / 27,63035,2021-05-02 13:32:59:237
0.8919,-9.6715,0.3138,0.8001,-9.7737,0.0667,0.0,0.0,0.0,-0.0405,-0.1397,-0.0264,2.27,30.94,-26.13,35.88507,14.480747,59.18,NaN,0.0,3.790092,,18 / 27,63036,2021-05-02 13:32:59:238
0.8919,-9.6715,0.3138,0.8001,-9.7737,0.0667,0.0,0.0,0.0,-0.0405,-0.1397,-0.0264,2.27,30.94,-26.13,35.88507,14.480747,59.18,NaN,0.0,3.790092,,18 / 27,63476,2021-05-02 13:32:59:678
0.8919,-9.6715,0.3138,0.8001,-9.7737,0.0667,0.0,0.0,0.0,-0.0405,-0.1397,-0.0264,2.27,30.94,-26.13,35.88507,14.480747,59.18,NaN,0.0,3.790092,,18 / 27,63476,2021-05-02 13:32:59:678
0.2874,-9.9132,-0.3601,0.1029,-9.7889,-0.5799,0.0,0.0,0.0,-0.0597,0.1913,0.0276,2.82,32.07,-24.64,35.88507,14.480747,59.18,NaN,0.0,3.790092,,19 / 27,63935,2021-05-02 13:33:00:137
0.2874,-9.9132,-0.3601,0.1029,-9.7889,-0.5799,0.0,0.0,0.0,-0.0597,0.1913,0.0276,2.82,32.07,-24.64,35.88507,14.480747,59.18,NaN,0.0,3.790092,,19 / 27,63936,2021-05-02 13:33:00:138
0.2168,-9.7875,-0.4917,0.2871,-9.7922,-0.4476,0.0,0.0,0.0,-0.0047,-0.0183,-0.022,5.69,32.02,-24.12,35.88507,14.480747,59.18,NaN,0.0,3.790092,,19 / 27,64514,2021-05-02 13:33:00:716
0.2168,-9.7875,-0.4917,0.2871,-9.7922,-0.4476,0.0,0.0,0.0,-0.0047,-0.0183,-0.022,5.69,32.02,-24.12,35.88507,14.480747,59.18,NaN,0.0,3.790092,,19 / 27,64515,2021-05-02 13:33:00:717
0.2587,-9.8079,-0.585,0.2406,-9.7979,-0.3376,0.0,0.0,0.0,0.011,-0.0089,0.0142,6.76,31.94,-24.03,35.88507,14.480747,59.18,NaN,0.0,3.790092,,19 / 27,64994,2021-05-02 13:33:01:196
0.2587,-9.8079,-0.585,0.2406,-9.7979,-0.3376,0.0,0.0,0.0,0.011,-0.0089,0.0142,6.76,31.94,-24.03,35.88507,14.480747,59.18,NaN,0.0,3.790092,,19 / 27,64994,2021-05-02 13:33:01:196
0.2874,-9.7385,-0.4798,0.2504,-9.7908,-0.4978,0.0,0.0,0.0,-0.0069,-0.0189,-0.0061,6.66,32.43,-23.33,35.88507,14.480747,59.18,NaN,0.0,3.790092,,20 / 27,65455,2021-05-02 13:33:01:657
0.2874,-9.7385,-0.4798,0.2504,-9.7908,-0.4978,0.0,0.0,0.0,-0.0069,-0.0189,-0.0061,6.66,32.43,-23.33,35.88507,14.480747,59.18,NaN,0.0,3.790092,,20 / 27,65456,2021-05-02 13:33:01:658
0.661,-9.7911,-0.9012,-0.1304,-9.7751,-0.7749,0.0,0.0,0.0,0.0185,-0.0231,0.0533,8.06,32.87,-22.26,35.88507,14.480747,59.18,NaN,0.0,3.790092,,19 / 27,65860,2021-05-02 13:33:02:062
1.13,-9.4451,-2.2825,-0.0474,-9.702,-1.4281,0.2135,-0.0792,-0.3027,-0.5528,-0.3911,-0.7822,7.43,33.54,-21.44,35.88507,14.480747,59.18,NaN,0.0,3.790092,,19 / 27,66358,2021-05-02 13:33:02:560
2.2648,-8.1667,-2.5077,3.3321,-8.7704,-2.8543,-0.5251,0.238,0.4078,0.0206,-0.8338,-0.4131,-9.56,35.15,-17.1,35.88507,14.480747,59.18,NaN,0.0,3.790092,,19 / 27,66858,2021-05-02 13:33:03:060
0.3879,-9.9275,-0.2584,1.6383,-9.6091,-1.0731,0.4759,-0.0051,0.0125,0.3978,0.2265,0.409,-16.47,32.54,-18.85,35.88507,14.480747,59.18,NaN,0.0,3.790092,,19 / 27,67357,2021-05-02 13:33:03:559
-0.2608,-10.0579,-0.0033,0.5296,-9.7915,0.1312,0.8589,-0.0229,0.7624,0.0492,0.1475,-0.0217,-9.11,30.99,-25.16,35.88507,14.480747,59.18,NaN,0.0,3.790092,,17 / 27,67856,2021-05-02 13:33:04:058
0.8812,-9.7911,0.4143,0.4198,-9.7953,0.2131,-0.0147,-0.0853,0.0619,0.0489,0.0765,0.0933,-5.54,30.37,-26.96,35.88507,14.480747,59.18,NaN,0.0,3.790092,,17 / 27,68358,2021-05-02 13:33:04:560
0.7077,-9.8785,0.1271,0.0403,-9.8066,-0.0047,0.596,-0.0384,0.091,-0.233,-0.5075,0.1556,-5.27,31.33,-25.85,35.88507,14.480747,59.18,NaN,0.0,3.790092,,18 / 27,68858,2021-05-02 13:33:05:060
3.0227,-9.8186,-1.1967,1.8588,-9.1348,-3.0449,0.4576,-0.4585,1.6509,0.3578,-1.6085,-1.4787,-10.78,34.31,-18.98,35.88507,14.480747,59.18,NaN,0.0,3.790092,,18 / 27,69358,2021-05-02 13:33:05:560
0.5231,-11.5795,-5.8654,1.7509,-9.4794,-1.8018,-3.4933,-2.8183,-0.8373,0.8486,-0.0979,0.1536,-32.09,27.38,-0.49,35.88507,14.480737,59.45,NaN,2.12,3.790092,257.6,19 / 27,69857,2021-05-02 13:33:06:059
0.8608,-9.5961,1.2918,0.8983,-9.7432,-0.6588,-1.5535,0.1504,0.1732,0.3105,0.334,0.2743,-32.59,27.62,3.66,35.88507,14.480737,59.45,NaN,2.12,3.790092,257.6,19 / 27,70444,2021-05-02 13:33:06:646
1.5502,-9.772,-0.093,0.9175,-9.7221,0.9002,0.0,0.0,0.0,0.4325,0.4029,0.4591,-31.16,29.27,3.16,35.885067,14.480731,59.47,NaN,2.63,3.790092,226.1,19 / 27,70886,2021-05-02 13:33:07:088
1.5502,-9.772,-0.093,0.9175,-9.7221,0.9002,0.0,0.0,0.0,0.4325,0.4029,0.4591,-31.16,29.27,3.16,35.885067,14.480731,59.47,NaN,2.63,3.790092,226.1,19 / 27,70887,2021-05-02 13:33:07:089
-0.0156,-10.5619,-0.457,0.8432,-9.7524,-0.592,0.0,0.0,0.0,-0.7894,-0.2889,-1.7591,-27.62,32.02,0.02,35.885056,14.480728,59.41,NaN,3.31,3.790092,195.6,18 / 27,71376,2021-05-02 13:33:07:578
-0.0156,-10.5619,-0.457,0.8432,-9.7524,-0.592,0.0,0.0,0.0,-0.7894,-0.2889,-1.7591,-27.62,32.02,0.02,35.885056,14.480728,59.41,NaN,3.31,3.790092,195.6,18 / 27,71377,2021-05-02 13:33:07:579
1.6866,-9.1352,-0.2405,2.1534,-9.5657,-0.1744,0.0,0.0,0.0,-0.4468,-0.057,0.5576,-30.52,27.36,1.98,35.885056,14.480728,59.41,NaN,3.31,3.790092,195.6,19 / 27,71845,2021-05-02 13:33:08:047
1.6866,-9.1352,-0.2405,2.1534,-9.5657,-0.1744,0.0,0.0,0.0,-0.4468,-0.057,0.5576,-30.52,27.36,1.98,35.885056,14.480728,59.41,NaN,3.31,3.790092,195.6,19 / 27,71845,2021-05-02 13:33:08:047
3.256,-8.8406,2.1141,2.8384,-9.3626,0.6752,0.0,0.0,0.0,0.6104,1.5424,0.1335,-32.59,20.67,15.02,35.885044,14.480728,59.61,NaN,4.43,3.790092,189.6,19 / 27,72279,2021-05-02 13:33:08:481
3.256,-8.8406,2.1141,2.8384,-9.3626,0.6752,0.0,0.0,0.0,0.6104,1.5424,0.1335,-32.59,20.67,15.02,35.885044,14.480728,59.61,NaN,4.43,3.790092,189.6,19 / 27,72280,2021-05-02 13:33:08:482
-6.5285,-2.155,-1.6708,-2.3737,-9.453,-1.0851,0.0,0.0,0.0,0.6383,0.7764,1.5853,-32.81,21.07,13.97,35.885033,14.480731,59.65,NaN,3.85,3.790092,160.3,20 / 27,72721,2021-05-02 13:33:08:923
-6.5285,-2.155,-1.6708,-2.3737,-9.453,-1.0851,0.0,0.0,0.0,0.6383,0.7764,1.5853,-32.81,21.07,13.97,35.885033,14.480731,59.65,NaN,3.85,3.790092,160.3,20 / 27,72722,2021-05-02 13:33:08:924
2.4529,-6.3006,-0.6978,5.3221,-8.2248,-0.4451,0.0,0.0,0.0,-0.6081,-0.4717,-0.4348,-9.75,30.83,-23.11,35.885025,14.480741,59.8,NaN,4.32,3.790092,125.7,20 / 27,73132,2021-05-02 13:33:09:334
2.4529,-6.3006,-0.6978,5.3221,-8.2248,-0.4451,0.0,0.0,0.0,-0.6081,-0.4717,-0.4348,-9.75,30.83,-23.11,35.885025,14.480741,59.8,NaN,4.32,3.790092,125.7,20 / 27,73133,2021-05-02 13:33:09:335
0.0661,-3.0864,3.8429,0.5081,-8.8384,4.2185,0.0,0.0,0.0,0.0684,-0.6846,-0.4369,5.08,33.49,-19.08,35.885017,14.480748,59.99,NaN,4.36,3.790092,148.4,20 / 27,73627,2021-05-02 13:33:09:829
0.0661,-3.0864,3.8429,0.5081,-8.8384,4.2185,0.0,0.0,0.0,0.0684,-0.6846,-0.4369,5.08,33.49,-19.08,35.885017,14.480748,59.99,NaN,4.36,3.790092,148.4,20 / 27,73628,2021-05-02 13:33:09:830
2.4661,-17.1446,-5.3471,0.0613,-9.8045,0.1971,0.0,0.0,0.0,0.407,-0.6693,0.3473,2.09,34.84,-19.56,35.88501,14.480756,60.15,NaN,3.71,3.790092,132.6,20 / 27,74016,2021-05-02 13:33:10:218
2.4661,-17.1446,-5.3471,0.0613,-9.8045,0.1971,0.0,0.0,0.0,0.407,-0.6693,0.3473,2.09,34.84,-19.56,35.88501,14.480756,60.15,NaN,3.71,3.790092,132.6,20 / 27,74017,2021-05-02 13:33:10:219
-6.07,-2.1024,-15.6428,0.0613,-9.8045,0.1971,0.0,0.0,0.0,-0.3766,-0.0765,0.0257,-4.45,35.31,-18.15,35.885,14.480765,60.35,NaN,3.82,3.790092,130.2,18 / 27,74452,2021-05-02 13:33:10:654
-6.07,-2.1024,-15.6428,0.0613,-9.8045,0.1971,0.0,0.0,0.0,-0.3766,-0.0765,0.0257,-4.45,35.31,-18.15,35.885,14.480765,60.35,NaN,3.82,3.790092,130.2,18 / 27,74452,2021-05-02 13:33:10:654
-5.6859,-1.2682,-2.1915,1.826,-9.5326,1.4023,0.0,0.0,0.0,-0.5354,-0.3074,-1.0077,-0.76,37.5,-13.83,35.88499,14.480775,59.94,NaN,4.21,3.790092,141.9,19 / 27,75059,2021-05-02 13:33:11:261
-5.6608,-4.4186,-9.1334,-2.0289,-9.4419,1.704,10.5869,-0.9246,7.3293,-2.9783,0.3573,0.6092,4.29,38.21,-14.85,35.88499,14.480775,59.94,NaN,4.21,3.790092,141.9,19 / 27,75370,2021-05-02 13:33:11:572
3.4884,-2.1191,2.3417,6.8908,4.7987,-5.0655,0.0,0.0,0.0,-1.0186,-1.6859,-0.4658,5.5,38.63,-13.96,35.884964,14.480779,60.55,NaN,4.46,3.790092,186.2,18 / 27,75868,2021-05-02 13:33:12:070
3.4884,-2.1191,2.3417,6.8908,4.7987,-5.0655,0.0,0.0,0.0,-1.0186,-1.6859,-0.4658,5.5,38.63,-13.96,35.884964,14.480779,60.55,NaN,4.46,3.790092,186.2,18 / 27,75869,2021-05-02 13:33:12:071
3.4884,-2.1191,2.3417,6.8908,4.7987,-5.0655,0.0,0.0,0.0,-1.0186,-1.6859,-0.4658,5.5,38.63,-13.96,35.884964,14.480779,60.55,NaN,4.46,3.790092,186.2,18 / 27,76240,2021-05-02 13:33:12:442
3.1448,-7.4402,-2.2513,9.0751,-0.3119,3.7034,0.0,0.0,0.0,5.1504,-3.1043,-1.0245,10.19,39.99,0.45,35.884964,14.480779,60.55,NaN,4.46,3.790092,186.2,18 / 27,76782,2021-05-02 13:33:12:984
-2.8693,-11.4969,0.7831,0.411,-9.5688,-2.1069,0.0,0.0,0.0,5.1504,-3.1043,-1.0245,11.61,39.65,2.11,35.884945,14.480777,60.62,NaN,6.73,3.790092,188.1,19 / 27,77255,2021-05-02 13:33:13:457
-2.8693,-11.4969,0.7831,0.411,-9.5688,-2.1069,0.0,0.0,0.0,5.1504,-3.1043,-1.0245,11.61,39.65,2.11,35.884945,14.480777,60.62,NaN,6.73,3.790092,188.1,19 / 27,77256,2021-05-02 13:33:13:458
0.5076,-8.8872,1.7001,2.6395,-9.3641,1.2315,0.0,0.0,0.0,0.2422,0.6864,0.1545,17.6,28.43,-24.84,35.884926,14.480779,58.16,NaN,8.03,3.790092,183.2,19 / 27,77661,2021-05-02 13:33:13:863
0.5076,-8.8872,1.7001,2.6395,-9.3641,1.2315,0.0,0.0,0.0,0.2422,0.6864,0.1545,17.6,28.43,-24.84,35.884926,14.480779,58.16,NaN,8.03,3.790092,183.2,19 / 27,77662,2021-05-02 13:33:13:864
1.7683,0.2533,-0.8545,-1.2516,-9.7265,9.0E-4,0.0,0.0,0.0,0.3361,2.6195,0.3199,21.19,37.12,1.24,35.884903,14.480777,57.54,NaN,8.06,3.790092,189.4,19 / 27,78361,2021-05-02 13:33:14:563
1.7683,0.2533,-0.8545,-1.2516,-9.7265,9.0E-4,0.0,0.0,0.0,0.3361,2.6195,0.3199,21.19,37.12,1.24,35.884903,14.480777,57.54,NaN,8.06,3.790092,189.4,19 / 27,78362,2021-05-02 13:33:14:564
2.7891,-10.701,-2.4897,8.4055,-0.6804,-5.0055,0.0,0.0,0.0,0.3361,2.6195,0.3199,22.97,35.87,1.24,35.884888,14.480772,56.77,NaN,7.85,3.793335,196.3,19 / 27,78934,2021-05-02 13:33:15:136
2.7891,-10.701,-2.4897,8.4055,-0.6804,-5.0055,0.0,0.0,0.0,0.3361,2.6195,0.3199,22.97,35.87,1.24,35.884888,14.480772,56.77,NaN,7.85,3.793335,196.3,19 / 27,78935,2021-05-02 13:33:15:137
26.6764,-16.7291,-10.9851,1.413,-9.6531,-0.9955,16.0909,0.9661,-3.893,0.6254,-1.5625,3.6863,26.69,29.33,11.37,35.884872,14.480765,55.77,NaN,7.45,4.305904,201.6,19 / 27,79407,2021-05-02 13:33:15:609
3.1172,-0.4325,2.9545,0.9315,-4.3665,-8.7313,0.8621,-5.6766,16.0976,1.7948,2.3793,-3.2835,19.73,24.31,22.45,35.884872,14.480765,55.77,NaN,7.45,4.305904,201.6,19 / 27,79908,2021-05-02 13:33:16:110
1.6687,-9.0814,-3.1744,1.7764,-9.4558,-1.8978,-1.089,5.8223,-2.0444,0.4282,-0.6159,-0.1573,-1.96,40.13,1.7,35.88488,14.480785,54.53,NaN,4.39,3.790092,51.9,19 / 27,80408,2021-05-02 13:33:16:610
-2.3019,-9.5073,-4.1297,-0.2782,-9.801,0.1805,-0.826,-0.1209,-3.0018,0.6275,0.4365,0.4974,-0.16,39.26,-13.52,35.88488,14.480785,54.53,NaN,4.39,3.790092,51.9,19 / 27,80908,2021-05-02 13:33:17:110
-2.953,-3.5426,-0.6485,1.9735,-9.4421,-1.7671,-2.4575,-5.6147,0.1899,-0.2778,-1.3753,-1.5994,4.06,34.01,-22.3,35.88489,14.480788,54.45,NaN,1.66,3.790092,323.2,19 / 27,81407,2021-05-02 13:33:17:609
-1.0208,-8.1655,-0.4941,0.852,-9.7696,0.0093,-1.2327,-5.3303,1.8891,0.6144,0.7532,0.9454,-8.91,34.16,-18.42,35.88489,14.480788,54.45,NaN,1.66,3.790092,323.2,19 / 27,81908,2021-05-02 13:33:18:110
-5.7314,-13.2171,0.5174,-0.0704,-9.7901,0.5652,4.9284,-4.0552,0.2383,-1.9368,0.6812,-3.5907,-0.88,30.33,-25.34,35.884895,14.48078,54.36,NaN,3.82,3.790092,279.8,19 / 27,82587,2021-05-02 13:33:18:789
-5.7314,-13.2171,0.5174,-0.0704,-9.7901,0.5652,4.9284,-4.0552,0.2383,-1.9368,0.6812,-3.5907,-0.88,30.33,-25.34,35.884895,14.48078,54.36,NaN,3.82,3.790092,279.8,19 / 27,82588,2021-05-02 13:33:18:790
-0.1519,-10.5571,0.6024,1.3861,-9.6623,-0.9432,0.0,0.0,0.0,-1.6394,-1.7409,-1.9795,-2.0,30.33,-24.62,35.884903,14.480771,54.29,NaN,4.32,3.790092,291.3,19 / 27,83053,2021-05-02 13:33:19:255
-0.1519,-10.5571,0.6024,1.3861,-9.6623,-0.9432,0.0,0.0,0.0,-1.6394,-1.7409,-1.9795,-2.0,30.33,-24.62,35.884903,14.480771,54.29,NaN,4.32,3.790092,291.3,19 / 27,83057,2021-05-02 13:33:19:259
4.4841,-11.2672,2.0961,3.2305,-9.2274,0.7675,0.0,0.0,0.0,-0.0408,-0.494,0.0435,-6.67,30.57,-24.35,35.88491,14.480761,53.98,NaN,3.82,3.790092,281.9,18 / 26,83462,2021-05-02 13:33:19:664
4.4841,-11.2672,2.0961,3.2305,-9.2274,0.7675,0.0,0.0,0.0,-0.0408,-0.494,0.0435,-6.67,30.57,-24.35,35.88491,14.480761,53.98,NaN,3.82,3.790092,281.9,18 / 26,83463,2021-05-02 13:33:19:665
2.368,-8.9833,1.3804,1.2854,-9.5582,1.7774,0.0,0.0,0.0,0.056,0.9859,0.4038,-11.96,31.72,-20.4,35.88492,14.480753,54.0,NaN,3.02,3.790092,293.6,19 / 27,83881,2021-05-02 13:33:20:083
2.368,-8.9833,1.3804,1.2854,-9.5582,1.7774,0.0,0.0,0.0,0.056,0.9859,0.4038,-11.96,31.72,-20.4,35.88492,14.480753,54.0,NaN,3.02,3.790092,293.6,19 / 27,83882,2021-05-02 13:33:20:084
3.9036,-14.7087,-7.2586,6.2588,-7.1766,-2.3437,0.0,0.0,0.0,-0.0154,-0.9865,0.8902,-11.65,33.37,-16.41,35.88493,14.480748,53.87,NaN,2.41,3.790092,284.0,18 / 27,84449,2021-05-02 13:33:20:651
3.9036,-14.7087,-7.2586,6.2588,-7.1766,-2.3437,0.0,0.0,0.0,-0.0154,-0.9865,0.8902,-11.65,33.37,-16.41,35.88493,14.480748,53.87,NaN,2.41,3.790092,284.0,18 / 27,84450,2021-05-02 13:33:20:652
0.8321,-12.6509,0.0182,0.7248,-9.7742,-0.3308,0.0,0.0,0.0,-0.4222,-0.609,-0.6444,-7.8,30.49,-22.9,35.884933,14.480741,54.02,NaN,2.92,3.790092,272.5,18 / 27,84908,2021-05-02 13:33:21:110
0.8321,-12.6509,0.0182,0.7248,-9.7742,-0.3308,0.0,0.0,0.0,-0.4222,-0.609,-0.6444,-7.8,30.49,-22.9,35.884933,14.480741,54.02,NaN,2.92,3.790092,272.5,18 / 27,84908,2021-05-02 13:33:21:110
1.4498,-9.5782,-0.02,1.6,-9.6745,0.1193,0.0,0.0,0.0,0.0244,0.8674,0.2617,-16.69,27.27,-20.29,35.884937,14.480735,54.27,NaN,2.34,3.790092,266.9,18 / 27,85311,2021-05-02 13:33:21:513
1.4498,-9.5782,-0.02,1.6,-9.6745,0.1193,0.0,0.0,0.0,0.0244,0.8674,0.2617,-16.69,27.27,-20.29,35.884937,14.480735,54.27,NaN,2.34,3.790092,266.9,18 / 27,85312,2021-05-02 13:33:21:514
-0.7564,-5.8409,-1.8601,-0.1039,-9.5296,-2.3121,0.0,0.0,0.0,1.2507,0.4207,1.151,-22.58,26.01,-10.55,35.884937,14.480735,54.27,NaN,2.34,3.790092,266.9,19 / 27,85701,2021-05-02 13:33:21:903
-0.7564,-5.8409,-1.8601,-0.1039,-9.5296,-2.3121,0.0,0.0,0.0,1.2507,0.4207,1.151,-22.58,26.01,-10.55,35.884937,14.480735,54.27,NaN,2.34,3.790092,266.9,19 / 27,85701,2021-05-02 13:33:21:903
-0.9849,-10.1874,0.358,-2.0849,-9.5465,-0.8292,0.0,0.0,0.0,-1.2008,1.4888,0.2153,-13.01,28.68,-18.93,35.88494,14.480729,54.71,NaN,0.0,3.790092,,19 / 27,86143,2021-05-02 13:33:22:345
-0.9849,-10.1874,0.358,-2.0849,-9.5465,-0.8292,0.0,0.0,0.0,-1.2008,1.4888,0.2153,-13.01,28.68,-18.93,35.88494,14.480729,54.71,NaN,0.0,3.790092,,19 / 27,86143,2021-05-02 13:33:22:345
2.1033,-9.5877,-0.8521,1.3926,-9.6891,-0.5943,0.0,0.0,0.0,-0.7582,-0.2439,-0.149,1.93,30.98,-22.91,35.884933,14.480733,55.01,NaN,2.92,3.790092,154.2,18 / 27,86675,2021-05-02 13:33:22:877
2.1033,-9.5877,-0.8521,1.3926,-9.6891,-0.5943,0.0,0.0,0.0,-0.7582,-0.2439,-0.149,1.93,30.98,-22.91,35.884933,14.480733,55.01,NaN,2.92,3.790092,154.2,18 / 27,86675,2021-05-02 13:33:22:877
8.2968,-12.4092,-1.2724,5.5094,-8.1116,0.1388,0.0,0.0,0.0,-0.7765,-0.2101,-0.445,0.4,35.32,-16.41,35.88493,14.480743,55.39,NaN,4.18,3.790092,125.3,18 / 27,87116,2021-05-02 13:33:23:318
4.0965,2.554,-5.444,4.999,-7.1395,-4.4954,0.0,0.0,0.0,-3.5677,-0.9308,-2.7184,13.83,31.18,14.79,35.88493,14.480743,55.39,NaN,4.18,3.790092,125.3,18 / 27,87515,2021-05-02 13:33:23:717
-12.4517,-30.6568,2.9067,-1.2023,-6.3414,7.3832,-12.023,-10.0662,-0.2043,4.4323,0.0363,2.6441,13.88,32.37,16.27,35.884933,14.480776,56.0,NaN,11.02,3.790092,91.0,19 / 27,88016,2021-05-02 13:33:24:218
4.5236,1.7521,0.6287,9.489,2.4638,-0.2424,0.0,0.0,0.0,-2.8113,2.4318,-2.0553,18.74,30.26,16.04,35.88494,14.480804,56.16,NaN,9.97,3.790092,74.2,19 / 27,88742,2021-05-02 13:33:24:944
-11.6172,2.5995,6.3553,8.4961,3.8033,-3.0857,0.0,0.0,0.0,-1.0281,-2.7117,1.0051,13.02,34.54,18.12,35.88494,14.480804,56.16,NaN,9.97,3.790092,74.2,19 / 27,88890,2021-05-02 13:33:25:092
-0.4738,-13.0412,1.5239,-2.0742,-9.1295,2.9189,11.1715,-3.974,-10.6809,1.8049,-1.2064,2.2775,7.77,34.98,17.43,35.88494,14.480804,56.16,NaN,9.97,3.790092,74.2,19 / 27,89387,2021-05-02 13:33:25:589
6.2704,-3.9592,0.9338,9.1755,-1.4991,-3.12,0.0,0.0,0.0,-3.8522,0.2382,-4.0711,18.15,31.85,13.83,35.88496,14.48084,56.35,NaN,12.42,3.790092,67.9,19 / 27,89886,2021-05-02 13:33:26:088
6.2704,-3.9592,0.9338,9.1755,-1.4991,-3.12,0.0,0.0,0.0,-3.8522,0.2382,-4.0711,18.15,31.85,13.83,35.88496,14.48084,56.35,NaN,12.42,3.790092,67.9,19 / 27,90255,2021-05-02 13:33:26:457
4.0403,-16.9077,10.6421,-0.7596,-9.2312,3.2216,0.0,0.0,0.0,2.3634,-1.6453,3.7027,15.07,34.28,14.49,35.884975,14.480881,56.2,NaN,13.14,3.790092,62.5,19 / 27,90790,2021-05-02 13:33:26:992
4.0403,-16.9077,10.6421,-0.7596,-9.2312,3.2216,0.0,0.0,0.0,2.3634,-1.6453,3.7027,15.07,34.28,14.49,35.884975,14.480881,56.2,NaN,13.14,3.790092,62.5,19 / 27,90794,2021-05-02 13:33:26:996
0.358,-20.0749,-0.7923,0.2601,-9.7915,-0.4792,0.0,0.0,0.0,0.3572,-2.1117,1.2735,11.71,35.94,-6.88,35.885002,14.480931,57.22,NaN,2.38,3.790092,65.6,19 / 26,91253,2021-05-02 13:33:27:455
0.358,-20.0749,-0.7923,0.2601,-9.7915,-0.4792,0.0,0.0,0.0,0.3572,-2.1117,1.2735,11.71,35.94,-6.88,35.885002,14.480931,57.22,NaN,2.38,3.790092,65.6,19 / 26,91254,2021-05-02 13:33:27:456
0.358,-20.0749,-0.7923,0.2601,-9.7915,-0.4792,0.0,0.0,0.0,0.3572,-2.1117,1.2735,11.71,35.94,-6.88,35.885002,14.480931,57.22,NaN,2.38,3.790092,65.6,19 / 26,91686,2021-05-02 13:33:27:888
5.3402,-9.9251,-4.8838,2.6981,-8.6868,-3.6647,0.0,0.0,0.0,-1.6659,0.2665,-2.2221,-10.42,35.06,-20.41,35.885002,14.480931,57.22,NaN,2.38,3.790092,65.6,19 / 26,91857,2021-05-02 13:33:28:059
9.7214,-4.6427,11.0943,9.7673,-0.3751,0.794,0.0,0.0,0.0,-0.8274,-3.4624,-2.7167,-2.56,29.02,-25.24,35.885,14.48095,56.79,NaN,7.49,3.790092,118.8,19 / 26,92358,2021-05-02 13:33:28:560
1.5849,-3.1702,9.8818,-8.236,1.9828,-4.9403,0.0,0.0,0.0,1.8687,-1.7189,0.0858,-19.82,24.61,1.26,35.885,14.48095,56.79,NaN,7.49,3.790092,118.8,19 / 26,92858,2021-05-02 13:33:29:060
-0.9754,-13.9185,6.2189,3.4262,-9.1342,-0.9989,3.4664,-16.7478,1.9871,-3.5081,-0.3073,-2.8524,5.87,32.67,-21.42,35.88499,14.480964,56.49,NaN,6.37,3.790092,124.1,19 / 26,93360,2021-05-02 13:33:29:562
3.3649,-8.0172,-4.9196,0.7053,-9.7763,0.3113,-5.6203,-18.248,5.1221,1.8301,1.3277,1.5424,-5.55,37.92,-19.26,35.88499,14.480964,56.49,NaN,6.37,3.790092,124.1,19 / 26,93857,2021-05-02 13:33:30:059
4.89,-0.775,-2.9889,3.8268,-8.9846,-0.8958,-6.8708,4.3623,1.1097,0.6473,-1.6088,-0.1544,-5.1,34.87,-23.64,35.885014,14.48095,55.99,NaN,5.94,3.790092,332.5,19 / 26,94357,2021-05-02 13:33:30:559
3.2895,-15.0233,-1.2434,0.3374,-9.8003,-0.1036,5.1654,4.806,-2.8462,-0.3554,-0.6243,-0.2433,-5.76,35.53,-22.46,35.885014,14.48095,55.99,NaN,5.94,3.790092,332.5,19 / 26,94857,2021-05-02 13:33:31:059
2.9976,-20.051,-14.7655,2.2463,-9.4867,-1.0617,1.0971,3.5248,-0.7843,0.079,0.3903,1.4008,-13.96,33.71,-19.43,35.885036,14.480927,56.31,NaN,7.74,3.790092,322.7,20 / 26,95361,2021-05-02 13:33:31:563
3.0598,-17.2654,0.3329,2.6227,-9.4091,-0.8723,-3.3585,-7.8629,1.498,-1.1962,-1.8646,-2.7369,-12.64,33.23,-20.42,35.885036,14.480927,56.31,NaN,7.74,3.790092,322.7,20 / 26,95858,2021-05-02 13:33:32:060
0.1116,-11.4586,4.6017,0.319,-9.649,-1.7223,-2.0861,-8.9312,-3.5496,1.4783,1.3375,0.1116,-30.18,26.41,-8.5,35.88504,14.480908,56.22,NaN,4.36,3.790092,272.2,20 / 26,96357,2021-05-02 13:33:32:559
-1.9869,-16.8706,2.9629,1.9556,-9.549,-1.0784,2.9305,-3.7345,-0.8832,-1.4111,-1.3634,-0.8827,-22.55,28.9,-17.59,35.88504,14.480908,56.22,NaN,4.36,3.790092,272.2,20 / 26,96858,2021-05-02 13:33:33:060
0.3987,-10.701,4.5407,2.3742,-9.3206,-1.9131,5.4525,-0.7135,-2.3561,0.5907,1.6284,0.4401,-32.63,23.35,-6.58,35.88504,14.480889,56.18,NaN,4.75,3.790092,252.1,19 / 26,97361,2021-05-02 13:33:33:563
-0.3182,-3.673,6.2752,1.9065,-9.5445,-1.1993,-2.4594,-7.3001,-2.277,0.9428,-0.0081,0.276,-33.35,23.31,-5.17,35.88504,14.480889,56.18,NaN,4.75,3.790092,252.1,19 / 26,97857,2021-05-02 13:33:34:059
-0.65,-7.3588,-1.8374,-0.416,-9.7299,-1.1514,0.0,0.0,0.0,0.0188,1.1718,0.307,-31.4,25.12,-6.91,35.885036,14.480874,56.65,NaN,3.64,3.790092,247.2,19 / 26,98304,2021-05-02 13:33:34:506
-0.65,-7.3588,-1.8374,-0.416,-9.7299,-1.1514,0.0,0.0,0.0,0.0188,1.1718,0.307,-31.4,25.12,-6.91,35.885036,14.480874,56.65,NaN,3.64,3.790092,247.2,19 / 26,98304,2021-05-02 13:33:34:506
0.7687,-7.8688,0.4385,2.3375,-9.5205,-0.2573,0.0,0.0,0.0,1.5879,1.2264,1.8417,-25.94,29.01,-14.31,35.885033,14.480861,56.31,NaN,3.46,3.790092,229.1,20 / 26,98754,2021-05-02 13:33:34:956
0.7687,-7.8688,0.4385,2.3375,-9.5205,-0.2573,0.0,0.0,0.0,1.5879,1.2264,1.8417,-25.94,29.01,-14.31,35.885033,14.480861,56.31,NaN,3.46,3.790092,229.1,20 / 26,98755,2021-05-02 13:33:34:957
4.2162,-12.8566,-1.8661,4.4396,-8.6374,1.3619,0.0,0.0,0.0,-1.7617,0.27,-2.044,-23.29,31.33,-17.03,35.885025,14.480844,56.86,NaN,5.11,3.790092,233.2,19 / 26,99167,2021-05-02 13:33:35:369
4.2162,-12.8566,-1.8661,4.4396,-8.6374,1.3619,0.0,0.0,0.0,-1.7617,0.27,-2.044,-23.29,31.33,-17.03,35.885025,14.480844,56.86,NaN,5.11,3.790092,233.2,19 / 26,99167,2021-05-02 13:33:35:369
2.3237,-9.055,-1.0053,1.3847,-9.6474,1.0863,0.0,0.0,0.0,0.5675,0.7072,0.9874,-33.29,26.07,0.17,35.885017,14.480835,56.88,NaN,4.25,3.790092,201.2,19 / 26,99746,2021-05-02 13:33:35:948
2.3237,-9.055,-1.0053,1.3847,-9.6474,1.0863,0.0,0.0,0.0,0.5675,0.7072,0.9874,-33.29,26.07,0.17,35.885017,14.480835,56.88,NaN,4.25,3.790092,201.2,19 / 26,99747,2021-05-02 13:33:35:949
2.7712,-13.3606,-2.8618,0.5353,-9.0045,3.8474,0.0,0.0,0.0,-0.1761,1.6954,0.4549,-35.64,21.58,1.88,35.885014,14.480824,57.82,NaN,4.03,3.790092,227.6,19 / 26,100170,2021-05-02 13:33:36:372
2.7712,-13.3606,-2.8618,0.5353,-9.0045,3.8474,0.0,0.0,0.0,-0.1761,1.6954,0.4549,-35.64,21.58,1.88,35.885014,14.480824,57.82,NaN,4.03,3.790092,227.6,19 / 26,100171,2021-05-02 13:33:36:373
-0.3063,-3.4313,7.7692,-0.1638,-7.3934,6.4406,0.0,0.0,0.0,0.6165,-0.7808,0.7561,-34.83,22.94,-7.5,35.885002,14.480811,57.97,NaN,4.46,3.790092,221.3,20 / 26,100732,2021-05-02 13:33:36:934
-0.3063,-3.4313,7.7692,-0.1638,-7.3934,6.4406,0.0,0.0,0.0,0.6165,-0.7808,0.7561,-34.83,22.94,-7.5,35.885002,14.480811,57.97,NaN,4.46,3.790092,221.3,20 / 26,100732,2021-05-02 13:33:36:934
12.4711,-15.629,-8.08,5.0448,-7.7271,-3.3185,0.0,0.0,0.0,-0.2724,1.1675,1.0794,-34.21,22.29,0.87,35.884995,14.480805,57.97,NaN,3.6,3.790092,198.0,19 / 26,101144,2021-05-02 13:33:37:346
12.4711,-15.629,-8.08,5.0448,-7.7271,-3.3185,0.0,0.0,0.0,-0.2724,1.1675,1.0794,-34.21,22.29,0.87,35.884995,14.480805,57.97,NaN,3.6,3.790092,198.0,19 / 26,101145,2021-05-02 13:33:37:347
1.1779,-8.7855,2.5642,0.9008,-9.7251,0.8841,0.0,0.0,0.0,-0.2485,-0.8769,-1.0612,-31.31,28.28,-0.9,35.884983,14.480793,58.05,NaN,3.53,3.790092,214.9,19 / 26,101556,2021-05-02 13:33:37:758
1.1779,-8.7855,2.5642,0.9008,-9.7251,0.8841,0.0,0.0,0.0,-0.2485,-0.8769,-1.0612,-31.31,28.28,-0.9,35.884983,14.480793,58.05,NaN,3.53,3.790092,214.9,19 / 26,101558,2021-05-02 13:33:37:760
1.1779,-8.7855,2.5642,0.9008,-9.7251,0.8841,0.0,0.0,0.0,-0.2485,-0.8769,-1.0612,-31.31,28.28,-0.9,35.884983,14.480793,58.05,NaN,3.53,3.790092,214.9,19 / 26,101992,2021-05-02 13:33:38:194
1.1779,-8.7855,2.5642,0.9008,-9.7251,0.8841,0.0,0.0,0.0,-0.2485,-0.8769,-1.0612,-31.31,28.28,-0.9,35.884983,14.480793,58.05,NaN,3.53,3.790092,214.9,19 / 26,101992,2021-05-02 13:33:38:194
5.7784,-9.4427,3.2261,4.1032,-8.9062,-0.1185,0.0,0.0,0.0,-1.452,1.1725,-1.4427,-30.11,27.51,-8.34,35.884975,14.480787,58.33,NaN,3.24,3.790092,208.4,20 / 26,102415,2021-05-02 13:33:38:617
5.7784,-9.4427,3.2261,4.1032,-8.9062,-0.1185,0.0,0.0,0.0,-1.452,1.1725,-1.4427,-30.11,27.51,-8.34,35.884975,14.480787,58.33,NaN,3.24,3.790092,208.4,20 / 26,102416,2021-05-02 13:33:38:618
9.2258,-14.5205,-5.9216,4.8905,-7.3347,-4.2959,0.0,0.0,0.0,-0.2126,1.4279,1.0294,-27.11,28.88,-10.97,35.88497,14.480787,58.23,NaN,3.56,3.790092,186.2,20 / 26,102862,2021-05-02 13:33:39:064
9.2258,-14.5205,-5.9216,4.8905,-7.3347,-4.2959,0.0,0.0,0.0,-0.2126,1.4279,1.0294,-27.11,28.88,-10.97,35.88497,14.480787,58.23,NaN,3.56,3.790092,186.2,20 / 26,102862,2021-05-02 13:33:39:064
-11.671,-4.8867,-4.0469,-8.7773,-4.365,-0.2758,0.0,0.0,0.0,2.9127,1.7579,2.6696,-4.95,11.87,38.95,35.884964,14.480791,57.91,NaN,4.0,3.878479,156.3,20 / 26,103348,2021-05-02 13:33:39:550
14.1374,-31.0496,-13.2129,1.832,-9.6159,-0.5911,0.0,0.0,0.0,-1.2719,0.8631,-1.8432,10.64,35.1,20.08,35.88496,14.480816,58.04,NaN,5.51,3.90356,108.1,20 / 26,103848,2021-05-02 13:33:40:050
14.1374,-31.0496,-13.2129,1.832,-9.6159,-0.5911,0.0,0.0,0.0,-4.2347,1.3364,-5.4665,12.36,36.86,16.76,35.88496,14.480816,58.04,NaN,5.51,3.90356,108.1,20 / 26,104298,2021-05-02 13:33:40:500
17.3393,-23.161,0.3592,1.2122,-9.6238,1.4436,0.0,0.0,0.0,3.5651,0.3861,4.1993,-7.04,31.17,26.43,35.88496,14.480816,58.04,NaN,5.51,3.90356,108.1,20 / 26,104704,2021-05-02 13:33:40:906
-15.8632,9.2958,2.9414,4.3129,-8.6574,-1.6184,-1.5033,-32.1545,3.1216,-0.3037,-4.2465,-2.3082,-2.96,33.07,22.95,35.884968,14.480841,58.13,NaN,5.83,3.790092,76.8,19 / 26,105332,2021-05-02 13:33:41:534
-15.8632,9.2958,2.9414,4.3129,-8.6574,-1.6184,-1.5033,-32.1545,3.1216,-0.3037,-4.2465,-2.3082,-2.96,33.07,22.95,35.884968,14.480841,58.13,NaN,5.83,3.790092,76.8,19 / 26,105333,2021-05-02 13:33:41:535
11.2068,-15.987,-4.4551,4.4538,-7.3989,-4.6465,0.0,0.0,0.0,3.0183,0.3057,2.942,-9.19,28.08,27.8,35.88496,14.48087,58.23,NaN,8.17,3.790092,111.1,20 / 26,105735,2021-05-02 13:33:41:937
12.0162,-20.5609,-2.1197,-0.9174,-9.7573,-0.3509,6.3832,-3.4581,-0.4294,1.2729,-0.3144,3.7227,-6.32,25.41,32.49,35.88496,14.48087,58.23,NaN,8.17,3.790092,111.1,20 / 26,106231,2021-05-02 13:33:42:433
-7.1282,-4.541,-2.1473,2.4153,-9.3433,-1.7436,-5.2316,9.866,1.898,-0.5681,0.9706,-1.0583,9.69,26.27,30.62,35.884956,14.480897,59.28,NaN,7.56,3.790092,113.7,20 / 26,106734,2021-05-02 13:33:42:936
3.5016,-13.3642,-1.7198,2.507,-9.4318,-0.9628,-1.3681,10.2493,-0.6615,1.1235,-2.1994,-0.6267,16.29,32.81,18.92,35.884956,14.480897,59.28,NaN,7.56,3.790092,113.7,20 / 26,107232,2021-05-02 13:33:43:434
4.6615,-5.3142,1.6343,4.2821,-8.5528,-2.1642,3.3924,-3.4298,-2.1731,-0.0327,1.1933,0.9291,11.39,39.22,9.58,35.884964,14.480928,60.0,NaN,9.4,3.790092,79.9,19 / 26,107731,2021-05-02 13:33:43:933
-3.1181,-20.7488,-2.097,-0.4381,-9.7862,0.4561,9.852,1.0016,2.1646,-0.2506,-1.4665,-2.1852,22.67,33.45,0.92,35.884964,14.480928,60.0,NaN,9.4,3.790092,79.9,19 / 26,108231,2021-05-02 13:33:44:433
4.2078,-10.6205,-2.5519,4.1026,-8.8212,-1.2351,-4.9724,2.1636,-0.4019,-0.5308,-0.3909,-0.3865,17.57,35.29,-1.13,35.884983,14.480948,60.21,NaN,7.16,3.790092,48.3,16 / 26,108877,2021-05-02 13:33:45:079
4.2078,-10.6205,-2.5519,4.1026,-8.8212,-1.2351,-4.9724,2.1636,-0.4019,-0.5308,-0.3909,-0.3865,17.57,35.29,-1.13,35.884983,14.480948,60.21,NaN,7.16,3.790092,48.3,16 / 26,108878,2021-05-02 13:33:45:080
1.3504,-11.182,-2.1365,2.4009,-9.4524,-1.0289,0.0,0.0,0.0,0.5864,-0.4058,-0.3931,15.26,36.53,-2.27,35.885002,14.480955,61.39,NaN,6.95,3.790092,14.0,20 / 26,109333,2021-05-02 13:33:45:535
4.1671,3.6972,-4.4133,-6.5529,5.4259,-4.8774,0.0,0.0,0.0,-0.6078,-0.8431,1.2935,12.91,34.92,-12.21,35.885002,14.480955,61.39,NaN,6.95,3.790092,14.0,20 / 26,109507,2021-05-02 13:33:45:709
13.7877,-37.5927,1.555,5.2968,-7.7795,-2.7558,0.0,0.0,0.0,-1.4708,-2.2722,-2.6108,22.83,32.57,-2.07,35.88502,14.480957,62.87,NaN,5.22,3.790092,352.4,20 / 26,110071,2021-05-02 13:33:46:273
13.7877,-37.5927,1.555,5.2968,-7.7795,-2.7558,0.0,0.0,0.0,-1.4708,-2.2722,-2.6108,22.83,32.57,-2.07,35.88502,14.480957,62.87,NaN,5.22,3.790092,352.4,20 / 26,110080,2021-05-02 13:33:46:282
-34.8413,-35.0644,52.1414,-6.0342,-7.7253,0.2799,0.0,0.0,0.0,1.4775,-0.6266,0.5627,13.85,33.7,11.03,35.885056,14.480953,61.6,NaN,2.52,3.790092,317.6,17 / 26,110580,2021-05-02 13:33:46:782
-34.8413,-35.0644,52.1414,-6.0342,-7.7253,0.2799,0.0,0.0,0.0,1.4775,-0.6266,0.5627,13.85,33.7,11.03,35.885056,14.480953,61.6,NaN,2.52,3.790092,317.6,17 / 26,110581,2021-05-02 13:33:46:783
1.3169,1.721,-2.3136,6.3621,-5.7958,-4.7014,0.0,0.0,0.0,-1.3689,-0.9433,-2.1638,-18.89,36.76,2.03,35.885056,14.480953,61.6,NaN,2.52,3.790092,317.6,17 / 26,110920,2021-05-02 13:33:47:122
1.6986,-21.1211,2.2639,-0.3505,-9.7802,-0.6283,0.0,0.0,0.0,-2.6503,1.3165,-3.905,-19.08,36.92,1.26,35.885063,14.480947,61.89,NaN,5.11,3.790092,316.6,17 / 26,111679,2021-05-02 13:33:47:881
1.6986,-21.1211,2.2639,-0.3505,-9.7802,-0.6283,0.0,0.0,0.0,-2.6503,1.3165,-3.905,-19.08,36.92,1.26,35.885063,14.480947,61.89,NaN,5.11,3.790092,316.6,17 / 26,111679,2021-05-02 13:33:47:881
1.6986,-21.1211,2.2639,-0.3505,-9.7802,-0.6283,0.0,0.0,0.0,-2.6503,1.3165,-3.905,-19.08,36.92,1.26,35.885063,14.480947,61.89,NaN,5.11,3.790092,316.6,17 / 26,111680,2021-05-02 13:33:47:882
-5.5301,-54.1394,0.3843,0.6336,-9.7861,0.047,0.0,0.0,0.0,-0.8421,-2.8559,-2.0129,-25.39,33.09,-1.68,35.885056,14.480925,62.24,NaN,7.09,3.790092,274.3,17 / 26,112078,2021-05-02 13:33:48:280
-5.5301,-54.1394,0.3843,0.6336,-9.7861,0.047,0.0,0.0,0.0,-0.8421,-2.8559,-2.0129,-25.39,33.09,-1.68,35.885056,14.480925,62.24,NaN,7.09,3.790092,274.3,17 / 26,112079,2021-05-02 13:33:48:281
7.3968,-4.523,12.69,5.8516,-7.8682,0.1421,0.0,0.0,0.0,0.1376,0.9086,0.3923,-31.38,24.61,-6.67,35.885036,14.480901,62.51,NaN,8.14,3.790092,234.3,17 / 26,112542,2021-05-02 13:33:48:744
7.3968,-4.523,12.69,5.8516,-7.8682,0.1421,0.0,0.0,0.0,0.1376,0.9086,0.3923,-31.38,24.61,-6.67,35.885036,14.480901,62.51,NaN,8.14,3.790092,234.3,17 / 26,112543,2021-05-02 13:33:48:745
9.2294,0.9428,-7.9528,8.5564,1.1571,-4.6497,0.0,0.0,0.0,-2.5544,0.1416,-3.0145,-29.33,24.95,-10.27,35.88502,14.48088,63.37,NaN,7.6,9.935046,232.9,18 / 26,112974,2021-05-02 13:33:49:176
9.2294,0.9428,-7.9528,8.5564,1.1571,-4.6497,0.0,0.0,0.0,-2.5544,0.1416,-3.0145,-29.33,24.95,-10.27,35.88502,14.48088,63.37,NaN,7.6,9.935046,232.9,18 / 26,112975,2021-05-02 13:33:49:177
-8.0393,2.7347,1.2751,-9.6856,1.4189,0.5881,0.0,0.0,0.0,0.4114,1.8084,-0.8944,-30.56,24.16,-10.89,35.885,14.480864,63.16,NaN,7.13,9.935046,234.2,18 / 26,113379,2021-05-02 13:33:49:581
-8.0393,2.7347,1.2751,-9.6856,1.4189,0.5881,0.0,0.0,0.0,0.4114,1.8084,-0.8944,-30.56,24.16,-10.89,35.885,14.480864,63.16,NaN,7.13,9.935046,234.2,18 / 26,113390,2021-05-02 13:33:49:592
4.9522,-11.3809,0.667,3.7683,-9.0288,-0.6722,0.0,0.0,0.0,0.5125,-0.4453,0.5006,-30.51,23.5,-17.24,35.88499,14.480852,62.26,NaN,6.7,9.935046,236.9,17 / 26,113806,2021-05-02 13:33:50:008
4.9522,-11.3809,0.667,3.7683,-9.0288,-0.6722,0.0,0.0,0.0,0.5125,-0.4453,0.5006,-30.51,23.5,-17.24,35.88499,14.480852,62.26,NaN,6.7,9.935046,236.9,17 / 26,113808,2021-05-02 13:33:50:010
5.7449,-20.5286,-1.7055,1.501,-9.6801,-0.461,0.0,0.0,0.0,-0.1775,-0.268,-1.3365,-25.29,29.28,-20.5,35.88498,14.480843,61.63,NaN,4.32,9.935046,236.2,19 / 26,114312,2021-05-02 13:33:50:514
5.7449,-20.5286,-1.7055,1.501,-9.6801,-0.461,0.0,0.0,0.0,-0.1775,-0.268,-1.3365,-25.29,29.28,-20.5,35.88498,14.480843,61.63,NaN,4.32,9.935046,236.2,19 / 26,114318,2021-05-02 13:33:50:520
-0.3494,-17.7479,-2.5137,0.9432,-9.7344,-0.7228,0.0,0.0,0.0,-0.6605,-2.486,-2.2191,-26.01,28.85,-17.65,35.884968,14.480835,61.69,NaN,5.08,9.935046,223.6,20 / 26,114772,2021-05-02 13:33:50:974
-0.3494,-17.7479,-2.5137,0.9432,-9.7344,-0.7228,0.0,0.0,0.0,-0.6605,-2.486,-2.2191,-26.01,28.85,-17.65,35.884968,14.480835,61.69,NaN,5.08,9.935046,223.6,20 / 26,114773,2021-05-02 13:33:50:975
-1.3537,-19.2814,-2.9985,0.3944,-9.7114,-1.3049,0.0,0.0,0.0,-2.0582,-0.2026,-2.6929,-28.8,27.72,-15.73,35.88496,14.480827,61.91,NaN,4.21,9.935046,232.4,20 / 26,115214,2021-05-02 13:33:51:416
-1.3537,-19.2814,-2.9985,0.3944,-9.7114,-1.3049,0.0,0.0,0.0,-2.0582,-0.2026,-2.6929,-28.8,27.72,-15.73,35.88496,14.480827,61.91,NaN,4.21,9.935046,232.4,20 / 26,115214,2021-05-02 13:33:51:416
3.0526,-7.5586,-2.9734,3.6932,-9.0192,-1.0885,0.0,0.0,0.0,0.1104,-0.4951,0.2002,-31.66,25.67,-13.25,35.884956,14.480821,61.58,NaN,3.49,9.935046,236.4,20 / 26,115772,2021-05-02 13:33:51:974
3.0526,-7.5586,-2.9734,3.6932,-9.0192,-1.0885,0.0,0.0,0.0,0.1104,-0.4951,0.2002,-31.66,25.67,-13.25,35.884956,14.480821,61.58,NaN,3.49,9.935046,236.4,20 / 26,115776,2021-05-02 13:33:51:978
4.215,-9.0646,5.205,3.4436,-8.4489,3.5955,0.0,0.0,0.0,0.4288,0.3638,0.5896,-34.36,23.34,-8.87,35.884953,14.480816,61.04,NaN,2.88,9.935046,247.7,19 / 26,116206,2021-05-02 13:33:52:408
4.215,-9.0646,5.205,3.4436,-8.4489,3.5955,0.0,0.0,0.0,0.4288,0.3638,0.5896,-34.36,23.34,-8.87,35.884953,14.480816,61.04,NaN,2.88,9.935046,247.7,19 / 26,116207,2021-05-02 13:33:52:409
12.9544,-10.5523,-6.8722,2.2882,-9.3373,-1.9364,-0.1826,2.6139,1.0387,1.6381,-0.2101,0.7764,-28.07,28.99,-16.32,35.884953,14.480816,61.04,NaN,2.88,9.935046,247.7,19 / 26,116620,2021-05-02 13:33:52:822
3.6894,-9.2465,0.8297,1.2384,-9.7235,0.2994,0.6511,0.2847,-1.3131,0.2097,0.5204,0.3833,-22.42,30.3,-21.94,35.884953,14.480816,61.04,NaN,2.88,9.935046,247.7,19 / 26,117116,2021-05-02 13:33:53:318
2.8083,-10.9307,1.3325,2.183,-9.5347,0.7034,0.0,0.0,0.0,-2.3169,1.4993,-1.4874,-15.87,30.87,-26.45,35.88495,14.480807,60.2,NaN,2.38,9.935046,272.1,18 / 26,117616,2021-05-02 13:33:53:818
2.8083,-10.9307,1.3325,2.183,-9.5347,0.7034,0.0,0.0,0.0,-2.3169,1.4993,-1.4874,-15.87,30.87,-26.45,35.88495,14.480807,60.2,NaN,2.38,9.935046,272.1,18 / 26,117617,2021-05-02 13:33:53:819
4.6424,-8.6288,-0.6879,2.1496,-9.5654,-0.2286,2.4477,0.7343,-0.1781,-0.0793,0.7126,0.4365,-21.57,30.74,-21.53,35.88495,14.480798,59.97,NaN,3.17,9.935046,266.9,18 / 26,117955,2021-05-02 13:33:54:157
4.3011,-9.8342,-1.8852,4.2666,-8.4813,-2.4563,-3.2436,-1.2478,1.5568,0.4678,-1.301,-1.6588,-22.34,31.55,-17.62,35.88495,14.480798,59.97,NaN,3.17,9.935046,266.9,18 / 26,118455,2021-05-02 13:33:54:657
-2.4191,-11.9375,-4.5365,-0.5043,-9.5852,-2.0099,0.0,0.0,0.0,0.5646,-0.1313,1.0296,-33.39,25.19,-10.55,35.884945,14.480791,59.96,NaN,2.77,9.935046,243.2,19 / 26,118957,2021-05-02 13:33:55:159
3.3637,-13.6122,-1.1656,1.9028,-9.2388,-2.6823,4.1824,-2.4049,-5.9403,-0.917,1.2961,-0.8214,-29.38,30.21,-10.32,35.884945,14.480791,59.96,NaN,2.77,9.935046,243.2,19 / 26,119454,2021-05-02 13:33:55:656
10.2434,-13.4614,-7.7076,2.3787,-9.476,-0.8472,-0.9901,0.1948,-4.6316,-0.4419,-1.1957,-0.2092,-24.63,31.59,-14.74,35.884937,14.480785,60.04,NaN,2.95,9.935046,213.5,20 / 26,119954,2021-05-02 13:33:56:156
-2.8908,-6.6966,-3.9308,4.0006,-8.3322,-3.2771,5.3608,-4.1918,-4.3712,-1.6027,0.0367,-1.1866,-25.36,29.61,-18.74,35.884937,14.480785,60.04,NaN,2.95,9.935046,213.5,20 / 26,120454,2021-05-02 13:33:56:656
-7.934,-6.7902,-2.6034,0.6567,-9.7788,0.3383,-11.4823,1.477,-2.1752,-1.0056,0.5105,0.693,-22.29,30.63,-20.7,35.884926,14.480795,59.29,NaN,5.94,9.935046,146.8,20 / 26,121244,2021-05-02 13:33:57:446
-7.934,-6.7902,-2.6034,0.6567,-9.7788,0.3383,-11.4823,1.477,-2.1752,-1.0056,0.5105,0.693,-22.29,30.63,-20.7,35.884926,14.480795,59.29,NaN,5.94,9.935046,146.8,20 / 26,121244,2021-05-02 13:33:57:446
7.7521,-9.262,-2.2202,5.4999,-8.0711,0.8825,-11.4823,1.477,-2.1752,-0.2717,0.1411,0.171,-20.07,30.93,-22.9,35.88492,14.480802,59.38,NaN,1.94,9.935046,134.1,20 / 26,121677,2021-05-02 13:33:57:879
7.7521,-9.262,-2.2202,5.4999,-8.0711,0.8825,-11.4823,1.477,-2.1752,-0.2717,0.1411,0.171,-20.07,30.93,-22.9,35.88492,14.480802,59.38,NaN,1.94,9.935046,134.1,20 / 26,121684,2021-05-02 13:33:57:886
2.2504,-2.3551,-2.8307,5.2954,-6.271,-5.3669,0.0,0.0,0.0,-0.8401,1.5453,1.9578,-37.82,11.85,-13.31,35.88492,14.480802,59.38,NaN,1.94,9.935046,134.1,19 / 26,122283,2021-05-02 13:33:58:485
2.2504,-2.3551,-2.8307,5.2954,-6.271,-5.3669,0.0,0.0,0.0,-0.8401,1.5453,1.9578,-37.82,11.85,-13.31,35.88492,14.480802,59.38,NaN,1.94,9.935046,134.1,19 / 26,122283,2021-05-02 13:33:58:485
1.7237,-11.3402,-0.4164,1.5936,-9.6752,0.1455,0.0,0.0,0.0,-2.3279,1.4847,-1.565,12.42,39.0,-11.96,35.884914,14.480817,59.09,NaN,4.43,9.935046,87.9,20 / 26,122694,2021-05-02 13:33:58:896
1.7237,-11.3402,-0.4164,1.5936,-9.6752,0.1455,0.0,0.0,0.0,-2.3279,1.4847,-1.565,12.42,39.0,-11.96,35.884914,14.480817,59.09,NaN,4.43,9.935046,87.9,20 / 26,122695,2021-05-02 13:33:58:897
6.4594,-14.2837,-2.9085,-3.5529,-8.775,2.5585,0.0,0.0,0.0,-0.62,0.8109,3.9557,2.82,43.88,4.62,35.884933,14.480828,58.43,NaN,5.36,9.935046,27.9,20 / 26,123148,2021-05-02 13:33:59:350
6.4594,-14.2837,-2.9085,-3.5529,-8.775,2.5585,0.0,0.0,0.0,-0.62,0.8109,3.9557,2.82,43.88,4.62,35.884933,14.480828,58.43,NaN,5.36,9.935046,27.9,20 / 26,123148,2021-05-02 13:33:59:350
-0.516,-7.075,-1.2338,-3.2363,-7.877,-4.8631,0.0,0.0,0.0,0.3129,0.4245,0.431,2.28,44.26,3.26,35.884937,14.480827,58.5,NaN,0.0,9.935046,,19 / 26,123706,2021-05-02 13:33:59:908
-5.7087,-10.7058,-2.6919,-1.8269,-9.6313,0.2681,-0.5071,-0.92,0.32,-0.6414,0.1648,-0.478,23.25,26.46,-26.03,35.884937,14.480827,58.5,NaN,0.0,9.935046,,19 / 26,124134,2021-05-02 13:34:00:336
2.1464,-11.8143,-7.3173,-2.2697,-9.3888,-1.6939,0.2725,1.6647,-1.9202,0.9373,-0.7837,0.1512,18.4,38.21,-12.82,35.884945,14.480827,58.39,NaN,2.16,9.935046,354.7,19 / 26,124552,2021-05-02 13:34:00:754
-1.5667,-9.4511,-0.5288,-3.5619,-9.124,-0.485,0.0,0.0,0.0,0.3157,-0.2373,0.202,13.63,35.12,-24.61,35.884945,14.480827,58.39,NaN,2.16,9.935046,354.7,19 / 26,125051,2021-05-02 13:34:01:253
-2.0348,-9.3063,-1.1572,-3.212,-9.2067,-1.044,-0.8813,1.5615,-0.5313,-1.0073,1.2354,-0.1228,12.6,32.0,-29.02,35.884953,14.48082,58.11,NaN,2.34,9.935046,313.9,18 / 26,125550,2021-05-02 13:34:01:752
-3.3637,-8.441,-2.9435,-3.9321,-8.3495,-3.3159,0.0,0.0,0.0,-1.4132,0.1304,-0.7109,11.59,36.31,-22.64,35.884953,14.48082,58.11,NaN,2.34,9.935046,313.9,19 / 26,126050,2021-05-02 13:34:02:252
-3.3637,-8.441,-2.9435,-3.9321,-8.3495,-3.3159,0.0,0.0,0.0,-1.4132,0.1304,-0.7109,11.59,36.31,-22.64,35.884953,14.48082,58.11,NaN,2.34,9.935046,313.9,19 / 26,126472,2021-05-02 13:34:02:674
-5.0815,-11.473,-1.2556,-3.4274,-8.8442,-2.4905,0.0,0.0,0.0,-0.4664,-0.0394,-0.2688,14.62,32.38,-26.95,35.884953,14.48082,58.11,NaN,2.34,9.935046,313.9,19 / 26,126712,2021-05-02 13:34:02:914
-3.0033,-10.2197,-0.347,-2.9293,-9.3095,-0.9609,0.0,0.0,0.0,-0.2517,-0.6887,-1.0679,16.04,33.68,-23.53,35.88496,14.480808,58.29,NaN,2.56,9.935046,299.4,19 / 26,127213,2021-05-02 13:34:03:415
-3.0033,-10.2197,-0.347,-2.9293,-9.3095,-0.9609,0.0,0.0,0.0,-0.2517,-0.6887,-1.0679,16.04,33.68,-23.53,35.88496,14.480808,58.29,NaN,2.56,9.935046,299.4,19 / 26,127215,2021-05-02 13:34:03:417
-1.9941,-9.5169,-0.0081,-2.0718,-9.5852,0.0538,0.0,0.0,0.0,0.1781,-0.0371,0.2796,0.89,39.02,-20.13,35.88496,14.480808,58.29,NaN,2.56,9.935046,299.4,19 / 26,127598,2021-05-02 13:34:03:800
-6.5656,-9.0933,-1.5511,-3.4287,-9.1542,-0.7843,-1.2012,-0.1798,-0.247,-1.3964,1.1427,-0.7026,4.81,36.44,-23.23,35.88496,14.480808,58.29,NaN,2.56,9.935046,299.4,19 / 26,128098,2021-05-02 13:34:04:300
-1.9499,-10.6134,-0.5312,-0.3502,-9.7797,-0.6363,0.0,0.0,0.0,-0.518,0.4406,-1.5564,5.26,36.76,-22.37,35.88496,14.480798,58.89,NaN,2.77,9.935046,272.0,19 / 26,128519,2021-05-02 13:34:04:721
-1.9499,-10.6134,-0.5312,-0.3502,-9.7797,-0.6363,0.0,0.0,0.0,-0.518,0.4406,-1.5564,5.26,36.76,-22.37,35.88496,14.480798,58.89,NaN,2.77,9.935046,272.0,19 / 26,128519,2021-05-02 13:34:04:721
-1.7405,-8.8394,-2.0037,-1.7775,-9.3221,-2.4715,0.0,0.0,0.0,-0.0188,-0.2553,-0.2701,-7.54,40.53,-10.99,35.88496,14.480789,58.71,NaN,2.81,9.935046,247.1,19 / 26,128934,2021-05-02 13:34:05:136
-1.7405,-8.8394,-2.0037,-1.7775,-9.3221,-2.4715,0.0,0.0,0.0,-0.0188,-0.2553,-0.2701,-7.54,40.53,-10.99,35.88496,14.480789,58.71,NaN,2.81,9.935046,247.1,19 / 26,128934,2021-05-02 13:34:05:136
-1.7405,-8.8394,-2.0037,-1.7775,-9.3221,-2.4715,0.0,0.0,0.0,-0.0188,-0.2553,-0.2701,-12.35,39.53,-10.67,35.88496,14.480789,58.71,NaN,2.81,9.935046,247.1,19 / 26,129319,2021-05-02 13:34:05:521
-1.7405,-8.8394,-2.0037,-1.7775,-9.3221,-2.4715,0.0,0.0,0.0,-0.0188,-0.2553,-0.2701,-12.35,39.53,-10.67,35.88496,14.480789,58.71,NaN,2.81,9.935046,247.1,19 / 26,129319,2021-05-02 13:34:05:521
-2.2493,-8.9626,2.9342,-3.8847,-9.0028,0.172,0.0,0.0,0.0,-0.2981,1.1441,0.0377,-10.91,39.64,-11.66,35.88496,14.480789,58.71,NaN,2.81,9.935046,247.1,20 / 26,129811,2021-05-02 13:34:06:013
-2.2493,-8.9626,2.9342,-3.8847,-9.0028,0.172,0.0,0.0,0.0,-0.2981,1.1441,0.0377,-10.91,39.64,-11.66,35.88496,14.480789,58.71,NaN,2.81,9.935046,247.1,20 / 26,129812,2021-05-02 13:34:06:014
-4.0388,-8.3617,-0.3135,-3.6126,-9.1101,-0.3539,0.0,0.0,0.0,-0.3715,-0.3473,-0.0525,10.63,32.33,-25.36,35.884956,14.480786,59.16,NaN,1.87,9.935046,166.4,20 / 26,130203,2021-05-02 13:34:06:405
-1.5081,-8.053,-3.4783,-1.6182,-8.5932,-4.4395,0.0,0.0,0.0,-0.1503,0.4481,-0.0848,6.84,40.42,-15.14,35.884956,14.480786,59.16,NaN,1.87,9.935046,166.4,20 / 26,130302,2021-05-02 13:34:06:504
7.7725,-4.4282,5.3079,1.085,-8.5282,-4.7183,0.0,0.0,0.0,-1.8144,4.5352,-2.1864,21.09,27.0,-22.61,35.884956,14.480793,58.85,NaN,2.34,9.935046,99.8,20 / 26,130998,2021-05-02 13:34:07:200
7.7725,-4.4282,5.3079,1.085,-8.5282,-4.7183,0.0,0.0,0.0,-1.8144,4.5352,-2.1864,21.09,27.0,-22.61,35.884956,14.480793,58.85,NaN,2.34,9.935046,99.8,20 / 26,130999,2021-05-02 13:34:07:201
24.7382,11.3213,-24.9236,-3.3781,1.2599,9.1198,0.0,0.0,0.0,-3.8783,-3.7957,-1.39,26.05,27.74,13.04,35.884968,14.480812,58.34,NaN,7.74,9.935046,50.3,19 / 26,131469,2021-05-02 13:34:07:671
-8.0536,-3.9951,-10.1626,-2.5855,-9.4516,0.39,-0.3623,-10.3174,-21.2683,-1.7707,2.6975,0.0939,22.3,18.59,20.25,35.884968,14.480812,58.34,NaN,7.74,9.935046,50.3,19 / 26,131969,2021-05-02 13:34:08:171
-8.42,-3.1953,1.8066,-0.3614,-9.1777,-3.4364,-2.7361,10.6085,6.3894,3.1205,-1.5225,-0.9708,28.21,26.51,11.8,35.884983,14.480837,58.37,NaN,9.29,9.935046,54.3,19 / 26,132469,2021-05-02 13:34:08:671
-7.3451,-23.9342,10.7593,1.2501,-7.733,-5.8999,-2.7837,0.3381,2.8909,-0.9842,-2.8215,1.2556,22.75,35.84,-4.07,35.884983,14.480837,58.37,NaN,9.29,9.935046,54.3,19 / 26,132969,2021-05-02 13:34:09:171
-60.8806,-2.2161,6.9694,4.5949,-6.9573,-5.1627,7.0216,-44.6329,2.1015,-1.9346,0.3066,-13.54,23.96,29.21,-10.66,35.885014,14.480847,58.09,NaN,9.29,9.935046,11.2,20 / 26,133469,2021-05-02 13:34:09:671
-14.027,-1.3388,-11.7224,-4.6153,-6.8284,-5.3144,-10.0969,-5.5222,2.4348,4.8614,1.8919,0.3392,-20.65,22.92,21.52,35.885014,14.480847,58.09,NaN,9.29,9.935046,11.2,20 / 26,133969,2021-05-02 13:34:10:171
-2.9339,-5.8947,-7.6884,-2.8955,-9.241,-1.5464,1.971,2.033,0.9987,-0.5621,0.5101,-1.5761,-7.05,37.66,-2.21,35.885033,14.48085,57.85,NaN,7.2,9.935046,355.4,20 / 26,134742,2021-05-02 13:34:10:944
-1.8326,-20.5059,-3.4137,-1.7903,-9.047,-3.3343,0.0,0.0,0.0,-2.4634,-0.4242,-0.0953,-6.8,38.97,-8.82,35.885033,14.48085,57.85,NaN,7.2,9.935046,355.4,20 / 26,134849,2021-05-02 13:34:11:051
-7.7255,-19.9122,0.8154,0.2965,-9.2709,-3.1832,0.0,0.0,0.0,-1.6329,0.0353,-2.6511,2.1,37.36,-16.54,35.885025,14.480849,57.24,NaN,0.0,9.935046,,20 / 26,135479,2021-05-02 13:34:11:681
0.7687,-15.1286,-2.6106,-2.0459,-9.5603,-0.7645,0.0,0.0,0.0,-0.1697,-1.8968,-1.689,0.5,37.25,-16.49,35.885025,14.480849,57.24,NaN,0.0,9.935046,,20 / 26,135527,2021-05-02 13:34:11:729
-4.3211,-4.7456,-0.8809,-0.379,-9.6899,-1.4605,0.0,0.0,0.0,-1.0972,-1.775,-1.1157,-6.08,38.04,-14.8,35.885033,14.480836,58.36,NaN,6.34,9.935046,316.4,19 / 26,136220,2021-05-02 13:34:12:422
-4.3211,-4.7456,-0.8809,-0.379,-9.6899,-1.4605,0.0,0.0,0.0,-1.0972,-1.775,-1.1157,-6.08,38.04,-14.8,35.885033,14.480836,58.36,NaN,6.34,9.935046,316.4,19 / 26,136221,2021-05-02 13:34:12:423
-4.3008,-4.8556,0.0494,-3.8567,-8.8941,-1.4804,0.0,0.0,0.0,0.783,-1.3349,1.5022,-11.16,37.11,-11.85,35.885036,14.48082,59.04,NaN,5.29,9.935046,278.5,19 / 26,136648,2021-05-02 13:34:12:850
-4.162,-10.6519,-2.237,-1.9897,-9.2719,-2.4987,0.0,0.0,0.0,0.0628,-0.3593,-1.8154,-7.34,37.76,-15.68,35.885036,14.48082,59.04,NaN,5.29,9.935046,278.5,19 / 26,136739,2021-05-02 13:34:12:941
-3.2079,-10.5248,-2.1556,2.699,-9.3908,0.8356,0.0,0.0,0.0,-1.6537,1.4271,-0.9548,-7.6,36.78,-16.48,35.885033,14.480808,59.06,NaN,4.28,9.935046,242.5,20 / 26,137414,2021-05-02 13:34:13:616
-3.2079,-10.5248,-2.1556,2.699,-9.3908,0.8356,0.0,0.0,0.0,-1.6537,1.4271,-0.9548,-7.6,36.78,-16.48,35.885033,14.480808,59.06,NaN,4.28,9.935046,242.5,20 / 26,137415,2021-05-02 13:34:13:617
-1.8876,-11.2863,-2.7577,-1.3893,-9.542,-1.7861,0.0,0.0,0.0,-0.1371,1.0829,-2.1485,-6.12,36.99,-16.76,35.885025,14.480798,58.79,NaN,4.21,9.935046,235.8,19 / 26,137894,2021-05-02 13:34:14:096
-1.8876,-11.2863,-2.7577,-1.3893,-9.542,-1.7861,0.0,0.0,0.0,-0.1371,1.0829,-2.1485,-6.12,36.99,-16.76,35.885025,14.480798,58.79,NaN,4.21,9.935046,235.8,19 / 26,137894,2021-05-02 13:34:14:096
-1.7094,-8.91,1.5673,-1.9405,-9.5332,1.2341,0.0,0.0,0.0,0.8668,-0.2486,0.9357,-15.62,36.04,-10.22,35.885017,14.480789,58.83,NaN,4.18,9.935046,218.4,18 / 26,138456,2021-05-02 13:34:14:658
-1.7094,-8.91,1.5673,-1.9405,-9.5332,1.2341,0.0,0.0,0.0,0.8668,-0.2486,0.9357,-15.62,36.04,-10.22,35.885017,14.480789,58.83,NaN,4.18,9.935046,218.4,18 / 26,138457,2021-05-02 13:34:14:659
-1.1791,-8.1464,2.6121,1.4852,-9.0369,-3.5069,0.0,0.0,0.0,0.2769,0.7061,0.7011,-23.09,32.46,-3.05,35.88501,14.480781,59.12,NaN,4.14,9.935046,214.0,20 / 26,138856,2021-05-02 13:34:15:058
-0.9574,-14.5361,1.6534,-0.7917,-9.3745,2.7682,0.0,0.0,0.0,1.175,0.3598,0.2676,-24.85,33.06,-0.59,35.88501,14.480781,59.12,NaN,4.14,9.935046,214.0,20 / 26,138920,2021-05-02 13:34:15:122
4.8541,-10.8147,-5.1855,-2.5056,-9.4808,-0.0851,0.0,0.0,0.0,0.8637,0.2184,-0.016,-23.42,33.27,-1.9,35.885,14.480774,59.08,NaN,3.64,9.935046,213.5,20 / 26,139528,2021-05-02 13:34:15:730
4.8541,-10.8147,-5.1855,-2.5056,-9.4808,-0.0851,0.0,0.0,0.0,0.8637,0.2184,-0.016,-23.42,33.27,-1.9,35.885,14.480774,59.08,NaN,3.64,9.935046,213.5,20 / 26,139529,2021-05-02 13:34:15:731
3.1555,-12.0188,-5.225,-0.0649,-9.7299,-1.223,0.0,0.0,0.0,0.5143,-0.2847,0.6141,-25.33,32.34,-1.15,35.88499,14.480771,59.15,NaN,3.42,9.935046,192.9,20 / 26,139962,2021-05-02 13:34:16:164
3.1555,-12.0188,-5.225,-0.0649,-9.7299,-1.223,0.0,0.0,0.0,0.5143,-0.2847,0.6141,-25.33,32.34,-1.15,35.88499,14.480771,59.15,NaN,3.42,9.935046,192.9,20 / 26,139975,2021-05-02 13:34:16:177
14.9704,-31.0603,0.2336,-6.2892,1.2681,-7.4168,0.0,0.0,0.0,4.096,0.1901,-0.7089,-18.98,30.95,11.46,35.884983,14.480773,59.26,NaN,4.03,9.935046,168.6,20 / 26,140476,2021-05-02 13:34:16:678
-8.0166,-18.009,14.8543,-8.9286,-3.7274,-1.5987,8.7137,-9.8155,4.1105,-0.5921,3.7944,7.4154,-20.96,26.01,12.16,35.884983,14.480773,59.26,NaN,4.03,9.935046,168.6,20 / 26,141009,2021-05-02 13:34:17:211
30.8958,-72.1765,-40.3762,-7.7626,-5.8369,-1.358,-0.3687,-4.1646,12.6762,4.0951,-2.0772,3.7147,-23.79,28.26,9.74,35.884975,14.480776,59.4,NaN,3.49,9.935046,163.7,19 / 26,141479,2021-05-02 13:34:17:681
-12.1786,2.6115,14.4978,3.5267,-9.1301,-0.6118,-18.1688,12.6592,25.601,-2.3539,-7.6464,0.394,-22.02,29.82,8.64,35.884975,14.480776,59.4,NaN,3.49,9.935046,163.7,19 / 26,142025,2021-05-02 13:34:18:227
-39.6509,7.5733,23.2409,-1.5706,-6.9231,-6.7657,-34.4735,12.9973,11.6833,0.5693,-2.7728,-3.9817,-18.23,27.25,16.54,35.884964,14.480783,60.18,NaN,4.36,9.935046,130.5,19 / 26,142480,2021-05-02 13:34:18:682
-26.3889,-7.6292,27.2689,5.9054,-7.4605,-2.3744,14.1602,-54.5184,8.9433,-2.4324,-6.155,-1.7803,-18.46,24.61,19.78,35.884964,14.480783,60.18,NaN,4.36,9.935046,130.5,19 / 26,142978,2021-05-02 13:34:19:180
2.2828,-18.2925,-4.5832,0.8018,-9.0721,-3.6365,11.402,-31.7123,1.0763,-0.2932,-7.7199,-2.024,-10.47,22.47,25.77,35.88494,14.480796,60.38,NaN,8.24,9.954569,152.9,20 / 26,143476,2021-05-02 13:34:19:678
-3.8088,-1.8428,12.2545,2.4097,-9.0045,-3.0467,-20.0555,18.2732,18.132,-1.3281,0.762,1.5903,-12.92,22.24,26.46,35.88494,14.480796,60.38,NaN,8.24,9.954569,152.9,20 / 26,144027,2021-05-02 13:34:20:229
5.9734,-13.2972,1.2823,0.0545,-9.7405,1.1358,0.0,0.0,0.0,1.1511,1.1971,2.6593,-26.83,22.73,20.65,35.884907,14.480805,60.63,NaN,13.21,9.935046,161.7,20 / 26,144426,2021-05-02 13:34:20:628
-13.5482,-13.9029,-30.3652,7.5559,5.8495,2.2053,0.0,0.0,0.0,-0.9053,0.7813,-0.0476,-24.13,26.07,19.61,35.884907,14.480805,60.63,NaN,13.21,9.935046,161.7,20 / 26,144925,2021-05-02 13:34:21:127
-0.0263,-5.7272,4.3119,-2.1203,-9.5571,-0.5809,1.2338,3.4965,0.2795,-0.2056,1.2663,1.4283,-22.68,23.62,23.31,35.884865,14.480811,61.24,NaN,12.17,9.935046,160.3,20 / 26,145443,2021-05-02 13:34:21:645
-0.0263,-5.7272,4.3119,-2.1203,-9.5571,-0.5809,1.2338,3.4965,0.2795,-0.2056,1.2663,1.4283,-22.68,23.62,23.31,35.884865,14.480811,61.24,NaN,12.17,9.935046,160.3,20 / 26,145444,2021-05-02 13:34:21:646
1.6005,-16.5341,-1.223,2.8583,-9.3748,-0.3364,0.0,0.0,0.0,-0.963,-0.5388,-1.7313,-1.12,21.75,34.04,35.884804,14.48085,62.52,NaN,10.66,10.1238,141.8,19 / 26,145850,2021-05-02 13:34:22:052
1.6005,-16.5341,-1.223,2.8583,-9.3748,-0.3364,0.0,0.0,0.0,-0.963,-0.5388,-1.7313,-1.12,21.75,34.04,35.884804,14.48085,62.52,NaN,10.66,10.1238,141.8,19 / 26,145851,2021-05-02 13:34:22:053
-0.5231,-10.9343,-1.3298,-3.6832,-8.9388,-1.6436,0.0,0.0,0.0,-0.2341,-1.2528,-0.1228,7.76,21.78,32.59,35.884804,14.48085,62.52,NaN,10.66,10.1238,141.8,19 / 26,146232,2021-05-02 13:34:22:434
-1.1312,-3.4816,-3.5396,1.6557,-8.4368,-4.7169,-4.8493,-0.2204,-0.3482,-1.074,-0.1526,0.1373,27.84,25.9,10.69,35.884804,14.48085,62.52,NaN,10.66,10.1238,141.8,19 / 26,146729,2021-05-02 13:34:22:931
6.3314,-10.6409,3.0E-4,2.2831,-7.3059,-6.1304,-2.6151,-1.0933,2.4664,0.7095,1.5935,0.2056,23.29,27.63,16.25,35.884804,14.48085,62.52,NaN,10.66,10.1238,141.8,20 / 26,147232,2021-05-02 13:34:23:434
10.6669,-24.8285,5.709,5.6055,-6.5869,-4.6218,-1.6557,-36.1948,1.9023,-1.3055,1.0876,-4.7939,23.94,25.51,18.75,35.884804,14.48085,62.52,NaN,10.66,10.1238,141.8,20 / 26,147728,2021-05-02 13:34:23:930
6.8486,-3.0242,-24.9727,-1.0666,-9.6207,-1.5729,11.6026,-10.177,-15.0804,3.3635,0.7629,1.4135,16.46,26.58,23.74,35.88481,14.480859,63.99,NaN,3.49,9.935046,25.9,20 / 26,148228,2021-05-02 13:34:24:430
11.4416,-5.6459,-8.4616,0.7611,-9.6651,-1.4752,-8.4765,3.5197,5.4827,0.0976,-0.8086,-0.4499,31.38,24.78,0.18,35.88481,14.480859,63.99,NaN,3.49,9.935046,25.9,20 / 26,148728,2021-05-02 13:34:24:930
2.9868,-8.9207,3.2635,0.204,-9.6918,-1.4822,-1.6752,1.453,5.0762,0.8604,0.5375,1.3944,19.01,35.48,-8.75,35.88481,14.480859,63.99,NaN,3.49,9.935046,25.9,18 / 26,149531,2021-05-02 13:34:25:733
1.0319,-7.7489,0.5713,-6.2521,-7.1173,-2.535,0.0,0.0,0.0,-2.0644,1.8765,-1.4453,18.64,35.23,-11.36,35.88481,14.480859,63.99,NaN,3.49,9.935046,25.9,18 / 26,149729,2021-05-02 13:34:25:931
12.6637,-14.7003,-21.8913,3.0951,-7.6301,-5.3265,6.5122,0.5183,-6.6405,1.37,-1.2527,0.3149,23.05,32.42,0.81,35.884815,14.480851,63.4,NaN,1.94,9.935046,310.4,18 / 26,150329,2021-05-02 13:34:26:531
12.6637,-14.7003,-21.8913,3.0951,-7.6301,-5.3265,6.5122,0.5183,-6.6405,1.37,-1.2527,0.3149,23.05,32.42,0.81,35.884815,14.480851,63.4,NaN,1.94,9.935046,310.4,18 / 26,150330,2021-05-02 13:34:26:532
-4.1788,-8.8083,1.6869,0.9396,-9.6423,-1.5208,0.0,0.0,0.0,2.966,-1.7224,0.5443,18.84,35.27,7.05,35.884815,14.480851,63.4,NaN,1.94,9.935046,310.4,15 / 26,150775,2021-05-02 13:34:26:977
9.7322,3.0209,-11.6339,-0.4827,-9.7878,-0.3688,8.9377,-1.826,-3.5045,1.4324,1.0143,1.1895,21.29,25.88,-8.82,35.884815,14.480851,63.4,NaN,1.94,9.935046,310.4,15 / 26,151347,2021-05-02 13:34:27:549
17.0713,5.9512,-7.1127,-2.9285,-9.1417,2.0056,4.6995,-5.1472,-5.7637,1.1785,0.516,3.0014,21.14,31.17,-5.79,35.88484,14.480855,63.08,NaN,10.15,9.935046,5.7,18 / 26,151724,2021-05-02 13:34:27:926
-5.0097,-2.6291,0.6742,-3.7256,-8.9674,-1.3699,0.0,0.0,0.0,-1.5007,1.7719,-2.8337,27.54,22.9,-8.66,35.884872,14.480855,62.76,NaN,11.12,9.935046,1.5,18 / 26,152220,2021-05-02 13:34:28:422
-5.0097,-2.6291,0.6742,-3.7256,-8.9674,-1.3699,0.0,0.0,0.0,-1.5007,1.7719,-2.8337,27.54,22.9,-8.66,35.884872,14.480855,62.76,NaN,11.12,9.935046,1.5,18 / 26,152524,2021-05-02 13:34:28:726
0.1881,-4.2583,2.0279,4.3892,-7.0141,-5.2638,0.0,0.0,0.0,0.3283,-1.4702,1.0623,20.94,26.9,-11.61,35.884872,14.480855,62.76,NaN,11.12,9.935046,1.5,18 / 26,153027,2021-05-02 13:34:29:229
-14.7751,-19.7758,1.1889,3.0214,-9.2267,-1.382,0.0,0.0,0.0,1.2767,-1.2701,5.0685,17.2,30.66,-11.16,35.884895,14.480853,62.94,NaN,11.27,9.935046,349.8,17 / 26,153524,2021-05-02 13:34:29:726
-4.4794,16.9116,10.2039,4.5434,-8.2019,-2.8735,-12.8556,4.0866,6.1291,-0.5353,-5.8218,-1.4931,22.37,25.67,-12.74,35.884895,14.480853,62.94,NaN,11.27,9.935046,349.8,17 / 26,154024,2021-05-02 13:34:30:226
-3.4427,-24.5901,11.5887,-3.0131,-8.9416,2.6721,0.0,0.0,0.0,0.3375,-0.2581,1.7415,19.0,26.6,-11.87,35.884926,14.480854,63.19,NaN,12.06,9.935046,357.4,18 / 26,154524,2021-05-02 13:34:30:726
11.9073,-7.8796,6.4845,-3.0131,-8.9416,2.6721,0.0,0.0,0.0,0.087,-0.8921,2.2496,21.13,25.21,-4.36,35.884926,14.480854,63.19,NaN,12.06,9.935046,357.4,18 / 26,154711,2021-05-02 13:34:30:913
3.6105,-5.5606,-6.2626,8.967,2.8657,-2.7479,0.0,0.0,0.0,-2.6167,-0.1376,-2.4741,24.22,23.41,-3.49,35.88495,14.480855,63.19,NaN,10.51,9.935046,357.7,19 / 26,155332,2021-05-02 13:34:31:534
34.5805,-21.0362,-7.9122,-2.5216,-8.8218,3.4623,-34.1962,-32.2951,4.3786,1.1518,2.8065,-1.7776,20.25,19.96,12.25,35.88495,14.480855,63.19,NaN,10.51,9.935046,357.7,19 / 26,155712,2021-05-02 13:34:31:914
-1.0364,-10.6723,1.9561,2.5406,-8.9657,-3.0548,-0.1685,0.0405,6.3793,-0.0834,-1.7993,-0.1405,0.78,32.13,-3.71,35.88497,14.480849,62.67,NaN,11.38,9.935046,351.6,18 / 26,156213,2021-05-02 13:34:32:415
-3.1481,-4.1506,-1.4351,2.663,-9.0031,-2.8324,-5.762,4.1335,1.4832,0.9005,-0.4589,-0.5182,-12.63,29.74,-15.14,35.88497,14.480849,62.67,NaN,11.38,9.935046,351.6,18 / 26,156808,2021-05-02 13:34:33:010
3.146,-8.8693,0.7172,0.3089,-9.7313,1.1737,1.8551,-0.051,0.0616,-0.7158,-0.1501,-0.2611,-9.33,25.82,-24.34,35.884975,14.480827,62.79,NaN,6.66,9.935046,299.1,20 / 26,157212,2021-05-02 13:34:33:414
-3.0523,-24.4609,10.0807,2.2039,-9.3307,-2.0616,4.6687,4.4721,-3.0537,-0.6092,-0.6362,1.8906,-9.31,29.07,-21.87,35.884975,14.480827,62.79,NaN,6.66,9.935046,299.1,20 / 26,157713,2021-05-02 13:34:33:915
-2.6166,-16.7471,0.5713,2.4961,-9.3956,-1.2897,-6.35,-9.1452,-0.0494,-1.1899,1.1201,-2.8693,0.45,28.52,-24.24,35.884975,14.480808,62.52,NaN,4.57,9.935046,281.3,18 / 26,158215,2021-05-02 13:34:34:417
1.555,-4.4653,-0.8844,0.7171,-9.7647,-0.5534,-0.4871,-2.9822,0.8396,0.5711,0.6125,1.3275,-7.62,30.39,-20.76,35.884975,14.480808,62.52,NaN,4.57,9.935046,281.3,18 / 26,158713,2021-05-02 13:34:34:915
-0.0479,-8.6121,1.1506,-2.4294,-9.461,0.8709,0.0,0.0,0.0,-2.0138,1.5024,-2.2649,4.17,28.57,-22.63,35.884975,14.480796,62.51,NaN,4.18,9.935046,297.4,20 / 26,159212,2021-05-02 13:34:35:414
0.7376,-8.849,2.7906,-1.3175,-9.6577,-1.0786,0.4374,1.099,7.7574,-0.4137,-0.0504,0.3418,-7.45,32.98,-13.24,35.884975,14.480796,62.51,NaN,4.18,9.935046,297.4,20 / 26,159712,2021-05-02 13:34:35:914
-0.9132,-10.9869,-2.8056,-0.6593,-9.7751,0.428,1.9164,-0.2888,0.5279,3.0E-4,0.6959,-0.2483,-0.99,27.32,-23.29,35.884975,14.480789,62.41,NaN,3.24,9.935046,309.6,19 / 26,160215,2021-05-02 13:34:36:417
8.2884,0.7131,-2.6501,0.6202,-8.9163,-4.0356,6.5966,-0.5049,-5.9716,-0.1486,-0.4963,0.3541,-2.5,32.1,-12.46,35.884975,14.480789,62.41,NaN,3.24,9.935046,309.6,19 / 26,160712,2021-05-02 13:34:36:914
-1.1001,-9.0108,-5.231,-0.7473,-8.3854,-5.0296,0.0165,-0.7329,-0.3722,0.002,0.0035,-0.1503,-1.07,35.42,-2.37,35.884975,14.480789,62.41,NaN,3.24,9.935046,309.6,19 / 26,161215,2021-05-02 13:34:37:417
-0.1232,-8.4171,-5.2513,-0.8676,-8.4495,-4.9014,0.2813,-0.0332,-0.467,0.0281,0.0139,-0.0394,-0.05,35.37,-2.42,35.884975,14.480789,62.41,NaN,3.24,9.935046,309.6,19 / 26,161712,2021-05-02 13:34:37:914
0.1283,-8.6252,-5.3327,-0.2971,-8.4348,-4.9936,0.183,-0.1135,-0.133,0.1077,0.0669,-0.1124,-0.84,35.37,-2.89,35.884975,14.480789,62.41,NaN,3.24,9.935046,309.6,20 / 26,162212,2021-05-02 13:34:38:414
-0.2225,-8.3773,-5.1987,-0.1433,-8.3393,-5.1581,0.0,0.0,0.0,0.1208,0.0647,-0.077,-1.72,35.32,-3.42,35.884975,14.480789,62.41,NaN,3.24,9.935046,309.6,19 / 26,162712,2021-05-02 13:34:38:914
-0.2225,-8.3773,-5.1987,-0.1433,-8.3393,-5.1581,0.0,0.0,0.0,0.1208,0.0647,-0.077,-1.72,35.32,-3.42,35.884975,14.480789,62.41,NaN,3.24,9.935046,309.6,19 / 26,163080,2021-05-02 13:34:39:282
-0.2225,-8.3773,-5.1987,-0.1433,-8.3393,-5.1581,0.0,0.0,0.0,0.1208,0.0647,-0.077,-1.72,35.32,-3.42,35.884975,14.480789,62.41,NaN,3.24,9.935046,309.6,19 / 26,163080,2021-05-02 13:34:39:282
0.1666,-7.2401,-4.7282,0.3202,-8.474,-4.9253,0.0,0.0,0.0,-0.1799,0.253,0.0347,-1.56,35.17,-4.56,35.884975,14.480789,62.41,NaN,3.24,9.935046,309.6,17 / 26,163629,2021-05-02 13:34:39:831
0.1666,-7.2401,-4.7282,0.3202,-8.474,-4.9253,0.0,0.0,0.0,-0.1799,0.253,0.0347,-1.56,35.17,-4.56,35.884975,14.480789,62.41,NaN,3.24,9.935046,309.6,17 / 26,163630,2021-05-02 13:34:39:832
1.2571,-7.7836,-4.2063,1.8159,-8.7738,-3.9866,0.0,0.0,0.0,-0.0295,0.0111,0.1362,-1.6,34.62,-7.21,35.884975,14.480789,62.41,NaN,3.24,9.935046,309.6,18 / 26,164068,2021-05-02 13:34:40:270
1.2571,-7.7836,-4.2063,1.8159,-8.7738,-3.9866,0.0,0.0,0.0,-0.0295,0.0111,0.1362,-1.6,34.62,-7.21,35.884975,14.480789,62.41,NaN,3.24,9.935046,309.6,18 / 26,164069,2021-05-02 13:34:40:271
-1.5535,-9.7433,-2.7075,-2.0282,-9.1658,-2.8365,0.0,0.0,0.0,0.5427,-0.9233,-0.4638,7.23,31.12,-13.76,35.884975,14.480789,62.41,NaN,3.24,9.935046,309.6,18 / 26,164470,2021-05-02 13:34:40:672
-0.6045,-10.8829,0.8991,0.2401,-9.7869,-0.573,0.1133,0.1831,0.264,1.3506,-0.2646,0.2822,1.77,32.57,-12.31,35.884975,14.480789,62.41,NaN,3.24,9.935046,309.6,18 / 26,164972,2021-05-02 13:34:41:174
1.882,-9.8103,-0.1747,1.0328,-9.7519,0.0698,0.7565,0.5174,-0.3781,0.0344,-0.5776,-0.0351,2.31,27.57,-22.51,35.884975,14.480789,62.41,NaN,3.24,9.935046,309.6,19 / 26,165470,2021-05-02 13:34:41:672
1.5945,-10.7393,-5.499,2.2421,-9.489,-1.0504,1.1549,-2.6221,-0.2366,-0.9755,0.6124,-0.5745,-4.32,28.3,-22.08,35.884975,14.480789,62.41,NaN,3.24,9.935046,309.6,19 / 26,165970,2021-05-02 13:34:42:172
3.9024,-15.7023,-7.4683,-0.1231,-9.792,-0.5209,-3.446,0.6441,-0.5489,0.2871,0.6102,0.3709,-10.26,31.99,-15.45,35.884975,14.480789,62.41,NaN,3.24,9.935046,309.6,17 / 26,166470,2021-05-02 13:34:42:672
4.27,-9.1376,1.1459,1.0207,-9.7087,-0.9323,2.5167,0.4732,1.4161,-0.6513,-0.3932,-0.3363,-2.09,29.37,-23.85,35.884975,14.480789,62.41,NaN,3.24,9.935046,309.6,17 / 26,166971,2021-05-02 13:34:43:173
2.7377,-8.6444,-2.5555,1.8525,-9.1791,-2.9124,-0.7965,-0.2961,-1.3734,-0.7686,0.7935,-0.3841,-9.91,32.85,-16.76,35.884975,14.480803,61.76,NaN,3.24,9.935046,108.7,17 / 26,167755,2021-05-02 13:34:43:957
2.7377,-8.6444,-2.5555,1.8525,-9.1791,-2.9124,-0.7965,-0.2961,-1.3734,-0.7686,0.7935,-0.3841,-9.91,32.85,-16.76,35.884975,14.480803,61.76,NaN,3.24,9.935046,108.7,17 / 26,167755,2021-05-02 13:34:43:957
2.6731,-7.057,-2.7003,2.9385,-8.8681,-2.9819,0.0,0.0,0.0,-0.3592,0.8445,-0.2194,-10.41,33.31,-15.64,35.88497,14.48081,60.94,NaN,2.38,9.935046,123.9,19 / 26,168335,2021-05-02 13:34:44:537
2.6731,-7.057,-2.7003,2.9385,-8.8681,-2.9819,0.0,0.0,0.0,-0.3592,0.8445,-0.2194,-10.41,33.31,-15.64,35.88497,14.48081,60.94,NaN,2.38,9.935046,123.9,19 / 26,168336,2021-05-02 13:34:44:538
2.5032,-9.9503,-0.7696,2.3883,-9.5113,0.0273,0.0,0.0,0.0,-0.0354,0.0302,-0.1057,2.24,28.62,-24.28,35.88497,14.48081,60.94,NaN,2.38,9.935046,123.9,19 / 26,168735,2021-05-02 13:34:44:937
2.5032,-9.9503,-0.7696,2.3883,-9.5113,0.0273,0.0,0.0,0.0,-0.0354,0.0302,-0.1057,2.24,28.62,-24.28,35.88497,14.48081,60.94,NaN,2.38,9.935046,123.9,19 / 26,168735,2021-05-02 13:34:44:937
1.0475,-9.5447,-4.9842,0.9025,-8.7154,-4.4044,0.0,0.0,0.0,-0.5236,0.3748,-0.5664,-6.16,30.65,-20.81,35.884964,14.480819,60.67,NaN,2.99,9.935046,124.7,18 / 26,169144,2021-05-02 13:34:45:346
1.5658,-9.3553,-0.5264,3.0533,-9.136,1.8387,0.0,0.0,0.0,-0.2807,-0.5959,-0.2643,2.92,27.5,-24.3,35.884964,14.480819,60.67,NaN,2.99,9.935046,124.7,18 / 26,169472,2021-05-02 13:34:45:674
-2.5029,-7.2978,-6.7499,-0.7877,-7.5001,-6.2688,0.0,0.0,0.0,-0.6747,-1.0504,0.8399,-12.16,29.88,-17.76,35.884964,14.480827,60.1,NaN,2.2,9.935046,84.3,19 / 26,169986,2021-05-02 13:34:46:188
-2.5029,-7.2978,-6.7499,-0.7877,-7.5001,-6.2688,0.0,0.0,0.0,-0.6747,-1.0504,0.8399,-12.16,29.88,-17.76,35.884964,14.480827,60.1,NaN,2.2,9.935046,84.3,19 / 26,169987,2021-05-02 13:34:46:189
5.8406,-9.0024,6.1711,4.4626,-8.7151,-0.5499,0.0,0.0,0.0,-1.9735,-0.3331,-0.9044,-13.81,29.13,-17.9,35.884968,14.480846,60.21,NaN,6.26,9.935046,75.5,19 / 26,170550,2021-05-02 13:34:46:752
0.8991,-5.5259,20.185,-8.5966,-4.5585,-1.2202,0.0,0.0,0.0,-0.1112,2.8017,5.7673,9.33,34.71,7.64,35.884968,14.480846,60.21,NaN,6.26,9.935046,75.5,19 / 26,171065,2021-05-02 13:34:47:267
-5.8271,8.9689,3.2444,0.9459,-9.734,-0.7246,-5.8029,14.0816,6.9234,-0.6927,-1.0716,0.5863,18.54,28.38,12.0,35.88498,14.480867,59.96,NaN,8.32,9.935046,53.4,19 / 25,171477,2021-05-02 13:34:47:679
-8.3312,-16.8826,-0.2764,-2.3474,-9.0844,2.852,0.0,0.0,0.0,-1.8417,2.8693,-0.0907,15.63,28.58,15.58,35.884987,14.480892,60.2,NaN,8.64,9.935046,77.7,19 / 26,172194,2021-05-02 13:34:48:396
-2.819,1.8383,3.9996,-6.1923,6.1613,4.4569,0.0,0.0,0.0,0.4949,-0.719,1.6056,14.37,28.58,20.08,35.884987,14.480892,60.2,NaN,8.64,9.935046,77.7,19 / 26,172247,2021-05-02 13:34:48:449
6.117,-2.9728,8.9877,7.0455,-6.5369,1.9492,0.0,0.0,0.0,-2.2672,-1.8072,-1.3591,19.69,19.04,25.8,35.884987,14.480892,60.2,NaN,8.64,9.935046,77.7,19 / 26,172748,2021-05-02 13:34:48:950
13.8332,-11.546,-0.099,8.8955,-4.1174,0.2949,0.0,0.0,0.0,-1.7563,-2.1424,1.321,25.72,14.95,18.67,35.88499,14.48092,60.87,NaN,8.89,9.935046,71.8,19 / 26,173248,2021-05-02 13:34:49:450
13.8332,-11.546,-0.099,8.8955,-4.1174,0.2949,0.0,0.0,0.0,-1.7563,-2.1424,1.321,25.72,14.95,18.67,35.88499,14.48092,60.87,NaN,8.89,9.935046,71.8,19 / 26,173560,2021-05-02 13:34:49:762
1.1731,-9.6105,-3.044,2.6171,-7.0245,-6.3227,0.0,0.0,0.0,-1.0297,0.8329,0.9389,-7.26,28.22,-1.56,35.88501,14.480945,60.77,NaN,10.62,9.935046,53.9,19 / 26,174012,2021-05-02 13:34:50:214
1.1731,-9.6105,-3.044,2.6171,-7.0245,-6.3227,0.0,0.0,0.0,-1.0297,0.8329,0.9389,-7.26,28.22,-1.56,35.88501,14.480945,60.77,NaN,10.62,9.935046,53.9,19 / 26,174013,2021-05-02 13:34:50:215
-7.1557,-20.281,-1.6349,-3.0387,-9.1627,-1.7268,0.0,0.0,0.0,-0.5317,-1.7938,0.1168,-6.82,34.92,-10.44,35.88503,14.480971,60.7,NaN,12.56,9.935046,49.4,18 / 26,174441,2021-05-02 13:34:50:643
-7.1557,-20.281,-1.6349,-3.0387,-9.1627,-1.7268,0.0,0.0,0.0,-0.5317,-1.7938,0.1168,-6.82,34.92,-10.44,35.88503,14.480971,60.7,NaN,12.56,9.935046,49.4,18 / 26,174442,2021-05-02 13:34:50:644
-9.6924,-12.9227,-2.8941,-4.7508,-8.4235,-1.6265,0.0,0.0,0.0,-0.1222,1.0762,-3.1616,-6.42,30.37,-21.96,35.885048,14.480991,61.28,NaN,11.2,9.935046,46.0,19 / 26,174851,2021-05-02 13:34:51:053
-9.6924,-12.9227,-2.8941,-4.7508,-8.4235,-1.6265,0.0,0.0,0.0,-0.1222,1.0762,-3.1616,-6.42,30.37,-21.96,35.885048,14.480991,61.28,NaN,11.2,9.935046,46.0,19 / 26,174852,2021-05-02 13:34:51:054
2.6779,-10.6866,0.7878,2.4847,-9.1839,2.3775,0.0,0.0,0.0,-1.3426,0.21,-1.9208,-6.42,29.65,-21.84,35.885063,14.481004,60.43,NaN,10.55,9.968357,38.1,19 / 26,175474,2021-05-02 13:34:51:676
2.6779,-10.6866,0.7878,2.4847,-9.1839,2.3775,0.0,0.0,0.0,-1.3426,0.21,-1.9208,-6.42,29.65,-21.84,35.885063,14.481004,60.43,NaN,10.55,9.968357,38.1,19 / 26,175475,2021-05-02 13:34:51:677
-5.4452,-15.0509,-3.6772,-3.1101,-9.0805,-2.0104,0.0,0.0,0.0,0.2805,2.03,-3.1196,-4.43,29.33,-23.08,35.88508,14.481002,60.29,NaN,9.97,10.361276,21.0,18 / 26,176036,2021-05-02 13:34:52:238
-5.4452,-15.0509,-3.6772,-3.1101,-9.0805,-2.0104,0.0,0.0,0.0,0.2805,2.03,-3.1196,-4.43,29.33,-23.08,35.88508,14.481002,60.29,NaN,9.97,10.361276,21.0,18 / 26,176037,2021-05-02 13:34:52:239
2.8768,-11.085,3.5016,0.4853,-9.7628,0.7889,0.0,0.0,0.0,-1.37,1.5007,-2.8301,-4.45,29.22,-23.91,35.885067,14.480978,58.97,NaN,4.79,9.935046,257.1,19 / 26,176476,2021-05-02 13:34:52:678
2.8768,-11.085,3.5016,0.4853,-9.7628,0.7889,0.0,0.0,0.0,-1.37,1.5007,-2.8301,-4.45,29.22,-23.91,35.885067,14.480978,58.97,NaN,4.79,9.935046,257.1,19 / 26,176476,2021-05-02 13:34:52:678
-2.1978,-9.2393,-0.4606,-0.0266,-9.6666,1.6513,0.0,0.0,0.0,0.6533,-0.3077,0.31,-21.2,31.15,-9.15,35.885048,14.480955,58.66,NaN,4.5,9.935046,242.6,16 / 26,177159,2021-05-02 13:34:53:361
-2.1978,-9.2393,-0.4606,-0.0266,-9.6666,1.6513,0.0,0.0,0.0,0.6533,-0.3077,0.31,-21.2,31.15,-9.15,35.885048,14.480955,58.66,NaN,4.5,9.935046,242.6,16 / 26,177160,2021-05-02 13:34:53:362
4.3202,-9.1567,-1.2508,4.3395,-8.5058,2.2338,0.0,0.0,0.0,0.1138,0.651,0.9033,-18.69,32.24,-10.03,35.885033,14.480936,58.54,NaN,5.04,9.935046,222.5,17 / 26,177598,2021-05-02 13:34:53:800
4.3202,-9.1567,-1.2508,4.3395,-8.5058,2.2338,0.0,0.0,0.0,0.1138,0.651,0.9033,-18.69,32.24,-10.03,35.885033,14.480936,58.54,NaN,5.04,9.935046,222.5,17 / 26,177599,2021-05-02 13:34:53:801
3.195,-10.9235,1.9633,-1.0956,-6.0983,7.6013,0.0,0.0,0.0,0.5015,1.7841,-0.2121,-24.24,28.0,-12.66,35.885017,14.480918,58.79,NaN,4.68,9.935046,236.2,18 / 26,178006,2021-05-02 13:34:54:208
-4.1297,-10.1563,-3.1612,0.4408,-9.7357,-1.0916,-4.4895,-3.1645,-3.4986,-1.82,2.8055,-1.3257,-12.57,29.91,-21.57,35.885017,14.480918,58.79,NaN,4.68,9.935046,236.2,18 / 26,178507,2021-05-02 13:34:54:709
-5.4631,-18.842,-7.2215,0.5888,-9.6939,-1.361,1.5712,1.9854,1.3965,1.3907,-0.6176,1.5204,-11.91,32.04,-19.07,35.88501,14.480907,58.29,NaN,2.92,9.935046,236.8,17 / 26,179007,2021-05-02 13:34:55:209
0.7759,-9.3386,-1.4088,-1.453,-9.6966,-0.187,0.5524,-0.0052,-0.7973,0.0692,0.2158,0.3717,-4.29,30.22,-24.96,35.88501,14.480907,58.29,NaN,2.92,9.935046,236.8,17 / 26,179506,2021-05-02 13:34:55:708
0.2396,-9.4487,-2.875,0.198,-9.5294,-2.3068,-2.277,-1.1866,1.3989,-0.0677,-0.4222,-1.0641,0.45,31.28,-23.92,35.885,14.480893,58.73,NaN,2.2,9.935046,275.8,17 / 26,180005,2021-05-02 13:34:56:207
-3.5097,-13.7258,-2.1939,0.625,-9.7409,-0.946,3.4184,-0.6414,-2.1687,0.6212,-0.1639,0.0655,-6.56,34.48,-18.6,35.885,14.480893,58.73,NaN,2.2,9.935046,275.8,17 / 26,180505,2021-05-02 13:34:56:707
-1.7285,-10.0941,0.0864,-1.3729,-9.7065,-0.2643,0.4421,0.3106,0.2693,-0.0095,-0.0455,0.1771,-1.52,31.59,-24.31,35.885,14.480877,59.15,NaN,2.34,9.935046,272.1,18 / 26,181009,2021-05-02 13:34:57:211
-0.7445,-9.4032,0.2659,-1.7448,-9.6492,-0.1378,0.1003,-0.3048,-0.1297,0.0058,0.2847,0.1558,1.49,30.81,-25.5,35.885,14.480877,59.15,NaN,2.34,9.935046,272.1,18 / 26,181506,2021-05-02 13:34:57:708
-0.5495,-9.626,-0.4367,-0.1448,-9.8012,-0.2918,0.0,0.0,0.0,-0.098,0.2466,0.3781,2.2,30.66,-25.62,35.884995,14.480864,59.13,NaN,1.33,9.935046,268.7,20 / 26,181922,2021-05-02 13:34:58:124
-0.5495,-9.626,-0.4367,-0.1448,-9.8012,-0.2918,0.0,0.0,0.0,-0.098,0.2466,0.3781,2.2,30.66,-25.62,35.884995,14.480864,59.13,NaN,1.33,9.935046,268.7,20 / 26,181926,2021-05-02 13:34:58:128
-1.1599,-10.538,-2.4084,-0.7578,-9.5825,-1.942,0.0,0.0,0.0,0.1287,-0.2066,-1.1751,3.32,33.54,-21.18,35.884987,14.480847,59.17,NaN,3.71,9.935046,250.1,18 / 26,182357,2021-05-02 13:34:58:559
-0.7277,-9.9335,0.8824,-0.5218,-9.7478,0.9377,0.0,0.0,0.0,0.1962,0.1906,0.2182,-10.32,34.03,-19.58,35.884987,14.480847,59.17,NaN,3.71,9.935046,250.1,18 / 26,182648,2021-05-02 13:34:58:850
-9.2231,-14.1186,-8.8268,-3.7625,-7.8591,-4.4999,0.0,0.0,0.0,-0.4059,1.5838,-0.035,1.56,39.04,-11.0,35.88498,14.480837,59.27,NaN,1.73,9.935046,215.2,19 / 26,183197,2021-05-02 13:34:59:399
-9.2231,-14.1186,-8.8268,-3.7625,-7.8591,-4.4999,0.0,0.0,0.0,-0.4059,1.5838,-0.035,1.56,39.04,-11.0,35.88498,14.480837,59.27,NaN,1.73,9.935046,215.2,19 / 26,183198,2021-05-02 13:34:59:400
-6.8351,-0.3057,6.6248,-4.6449,-2.2554,8.3372,0.0,0.0,0.0,2.5651,4.337,0.7361,2.39,39.08,-10.57,35.884983,14.480852,60.32,NaN,8.71,9.935046,68.5,20 / 26,183636,2021-05-02 13:34:59:838
-12.2743,-5.866,13.826,-1.3573,-9.6923,-0.6231,0.0,0.0,0.0,-1.1576,2.457,-3.1616,28.79,20.89,12.38,35.884983,14.480852,60.32,NaN,8.71,9.935046,68.5,20 / 26,184184,2021-05-02 13:35:00:386
12.7295,1.7198,-0.0918,1.0973,-9.284,2.962,10.8342,10.107,-10.717,1.9995,-1.9588,1.7327,21.66,27.57,11.47,35.885002,14.480886,59.76,NaN,13.54,9.935046,50.1,18 / 26,184600,2021-05-02 13:35:00:802
-5.7206,-5.5403,-6.5608,3.8879,-6.8966,-5.7872,0.0,0.0,0.0,-3.2367,4.7144,-6.2242,25.79,24.02,8.22,35.885002,14.480886,59.76,NaN,13.54,9.935046,50.1,18 / 26,185100,2021-05-02 13:35:01:302
-9.3882,-56.3504,2.3261,9.1261,-0.6487,-3.5305,0.0,0.0,0.0,-0.9917,-2.6326,-2.269,26.49,21.89,12.65,35.88502,14.480921,59.94,NaN,12.2,9.935046,62.7,19 / 26,185668,2021-05-02 13:35:01:870
-5.1712,4.0875,9.2438,2.6311,-8.985,-2.9185,-19.2516,-36.1373,-1.7643,-2.5984,-4.0394,0.0507,26.71,20.57,13.01,35.88502,14.480921,59.94,NaN,12.2,9.935046,62.7,19 / 26,186051,2021-05-02 13:35:02:253
10.1474,1.2182,-2.7829,-2.5651,-9.3529,-1.454,13.9817,17.9969,2.3601,-4.738,2.5853,-4.0999,25.38,17.19,20.47,35.88504,14.48096,59.5,NaN,14.94,9.935046,60.4,19 / 26,186554,2021-05-02 13:35:02:756
-1.5404,-20.3456,11.9001,1.0355,-8.632,-4.5372,-16.45,8.6385,5.7612,2.88,2.1546,5.7096,23.97,16.75,22.92,35.88504,14.48096,59.5,NaN,14.94,9.935046,60.4,19 / 26,187081,2021-05-02 13:35:03:283
7.3152,-11.2744,5.6719,-3.7142,-8.1337,4.0271,4.3668,-24.3275,-20.1972,-1.9318,-1.0994,3.6173,17.39,19.18,11.91,35.885056,14.480992,58.46,NaN,13.79,9.935046,58.7,19 / 26,187554,2021-05-02 13:35:03:756
-0.006,-6.0634,2.1419,-4.1358,-7.3021,5.0739,15.2344,14.5806,-10.763,-1.9171,-3.991,-0.5559,24.5,27.33,-3.05,35.885056,14.480992,58.46,NaN,13.79,9.935046,58.7,19 / 26,188051,2021-05-02 13:35:04:253
-16.9179,-15.507,-0.9335,2.7834,-9.1009,2.3658,-6.757,20.738,-9.2039,0.6105,-0.6901,-0.3219,6.97,32.78,-13.01,35.88508,14.481015,57.63,NaN,15.48,9.935046,43.6,19 / 26,188551,2021-05-02 13:35:04:753
-5.9815,-3.3508,2.3237,0.1774,-9.3854,2.8379,3.5494,7.0459,-6.8024,-2.5856,-0.5061,-0.8619,-1.2,35.36,-14.29,35.88508,14.481015,57.63,NaN,15.48,9.935046,43.6,19 / 26,189051,2021-05-02 13:35:05:253
-5.9815,-3.3508,2.3237,0.1774,-9.3854,2.8379,3.5494,7.0459,-6.8024,-2.5856,-0.5061,-0.8619,-1.2,35.36,-14.29,35.885105,14.481043,57.55,NaN,14.04,10.186793,45.4,19 / 26,189451,2021-05-02 13:35:05:653
-5.9815,-3.3508,2.3237,0.1774,-9.3854,2.8379,3.5494,7.0459,-6.8024,-2.5856,-0.5061,-0.8619,-1.2,35.36,-14.29,35.885105,14.481043,57.55,NaN,14.04,10.186793,45.4,19 / 26,189452,2021-05-02 13:35:05:654
-4.9914,-9.6894,-6.2782,-2.1816,-7.2341,-6.2513,0.0,0.0,0.0,0.7561,-1.0281,1.6513,-8.33,37.64,-3.96,35.88512,14.481071,57.86,NaN,11.92,11.231665,53.7,19 / 26,190011,2021-05-02 13:35:06:213
0.0072,-1.8823,-1.3071,2.4691,-8.815,-3.5171,0.0,0.0,0.0,-2.043,0.4346,-1.4341,-11.03,35.11,-14.97,35.88512,14.481071,57.86,NaN,11.92,11.231665,53.7,19 / 26,190405,2021-05-02 13:35:06:607
-8.5026,-8.0423,-3.8782,-4.7809,-8.5616,0.1085,-1.6309,1.0167,-3.2244,0.79,0.2017,1.7307,-13.32,34.64,-12.41,35.88512,14.481071,57.86,NaN,11.92,11.231665,53.7,19 / 26,191168,2021-05-02 13:35:07:370
-8.5026,-8.0423,-3.8782,-4.7809,-8.5616,0.1085,-1.6309,1.0167,-3.2244,0.79,0.2017,1.7307,-13.32,34.64,-12.41,35.88512,14.481071,57.86,NaN,11.92,11.231665,53.7,19 / 26,191168,2021-05-02 13:35:07:370
-2.6177,-6.2001,0.9733,5.5706,-8.067,-0.2485,0.0,0.0,0.0,0.6188,0.1513,0.1155,-11.19,34.72,-13.16,35.8851,14.48105,56.34,NaN,4.07,9.935046,229.5,18 / 26,191598,2021-05-02 13:35:07:800
-2.6177,-6.2001,0.9733,5.5706,-8.067,-0.2485,0.0,0.0,0.0,0.6188,0.1513,0.1155,-11.19,34.72,-13.16,35.8851,14.48105,56.34,NaN,4.07,9.935046,229.5,18 / 26,191598,2021-05-02 13:35:07:800
-7.127,-11.9746,-9.5569,-1.7423,-9.6476,-0.243,0.0,0.0,0.0,0.8321,-0.6612,0.4213,-18.45,35.12,-2.64,35.885082,14.481027,56.18,NaN,4.57,9.935046,233.7,19 / 26,192054,2021-05-02 13:35:08:256
-7.127,-11.9746,-9.5569,-1.7423,-9.6476,-0.243,0.0,0.0,0.0,0.8321,-0.6612,0.4213,-18.45,35.12,-2.64,35.885082,14.481027,56.18,NaN,4.57,9.935046,233.7,19 / 26,192054,2021-05-02 13:35:08:256
-4.4841,-8.6228,-0.4822,-3.1872,-9.0703,1.9345,-0.5346,-1.0407,-1.131,0.9712,-0.1002,0.6249,-14.74,37.47,0.04,35.885067,14.481002,56.5,NaN,5.9,9.935046,233.8,19 / 26,192412,2021-05-02 13:35:08:614
-6.635,-3.4098,-0.0882,0.3088,-8.9526,-3.9907,-5.4146,5.5786,4.7736,1.5215,-1.0244,0.8538,-15.9,35.39,-4.62,35.885067,14.481002,56.5,NaN,5.9,9.935046,233.8,19 / 26,192911,2021-05-02 13:35:09:113
-6.1792,-6.9111,7.9941,-3.1637,-9.1909,-1.2996,-2.5928,-0.8225,-3.3047,-0.4067,-0.6466,0.7437,-21.4,34.47,3.2,35.88505,14.480982,56.18,NaN,4.64,9.935046,229.9,18 / 26,193496,2021-05-02 13:35:09:698
-6.1792,-6.9111,7.9941,-3.1637,-9.1909,-1.2996,-2.5928,-0.8225,-3.3047,-0.4067,-0.6466,0.7437,-21.4,34.47,3.2,35.88505,14.480982,56.18,NaN,4.64,9.935046,229.9,18 / 26,193497,2021-05-02 13:35:09:699
-2.9973,-7.6472,1.7288,-3.5734,-9.0515,-1.2135,0.0,0.0,0.0,0.7559,-1.1389,0.1329,-18.46,35.6,-1.61,35.88504,14.480966,56.36,NaN,3.82,9.935046,232.9,20 / 26,193910,2021-05-02 13:35:10:112
-7.6226,-12.0739,-0.3015,-2.8815,-9.3732,-0.0998,2.2111,-2.1924,-1.1341,-1.479,2.3087,-2.4851,-9.64,37.66,-12.97,35.88504,14.480966,56.36,NaN,3.82,9.935046,232.9,20 / 26,194411,2021-05-02 13:35:10:613
-7.7818,-7.9047,5.284,-1.3225,-9.5205,-1.9447,2.3861,-7.5273,-4.328,-0.3263,0.1243,1.0548,-19.97,36.14,-2.77,35.885033,14.480949,56.28,NaN,3.82,9.935046,234.2,20 / 26,194910,2021-05-02 13:35:11:112
-2.0288,-7.87,-2.857,-3.7982,-9.0158,0.677,3.2197,-1.069,-0.6452,0.346,-5.0E-4,0.6102,-13.9,37.71,-9.37,35.885033,14.480949,56.28,NaN,3.82,9.935046,234.2,20 / 26,195410,2021-05-02 13:35:11:612
-1.9905,-5.0689,0.3939,-0.7815,-9.215,-3.2625,-2.2224,4.0727,3.3683,2.0288,-0.1527,1.9358,-14.63,37.09,-8.89,35.885025,14.480935,56.15,NaN,3.35,9.941341,233.6,20 / 26,195910,2021-05-02 13:35:12:112
-2.3785,-9.1974,0.5856,-3.1556,-9.2802,-0.3016,-1.613,1.2152,-2.0615,0.3825,0.3693,0.5154,-11.25,37.12,-13.7,35.885025,14.480935,56.15,NaN,3.35,9.941341,233.6,20 / 26,196410,2021-05-02 13:35:12:612
-3.1493,-11.26,-2.808,-1.7096,-9.3592,-2.3774,-3.2295,0.4987,0.9439,-0.1988,0.0421,-1.5239,-4.01,36.67,-17.26,35.885014,14.480916,56.23,NaN,3.67,9.935046,236.6,19 / 26,197248,2021-05-02 13:35:13:450
-3.1493,-11.26,-2.808,-1.7096,-9.3592,-2.3774,-3.2295,0.4987,0.9439,-0.1988,0.0421,-1.5239,-4.01,36.67,-17.26,35.885014,14.480916,56.23,NaN,3.67,9.935046,236.6,19 / 26,197248,2021-05-02 13:35:13:450
-2.8896,-9.6308,1.5179,-3.8113,-9.0203,-0.5287,0.0,0.0,0.0,0.0846,-0.0341,-2.1045,-5.76,36.72,-15.9,35.885002,14.480898,56.4,NaN,3.31,9.935046,235.2,20 / 26,197682,2021-05-02 13:35:13:884
-2.9231,-9.4283,0.9781,-3.0215,-9.3255,0.2769,0.0,0.0,0.0,0.2874,1.081,0.3415,-8.47,37.23,-14.52,35.885002,14.480898,56.4,NaN,3.31,9.935046,235.2,20 / 26,197791,2021-05-02 13:35:13:993
-2.4335,-9.2237,2.3859,1.199,-9.6064,-1.5655,0.0,0.0,0.0,-0.1909,-0.3752,-0.3082,23.01,27.45,-19.21,35.88499,14.480884,56.56,NaN,3.78,9.935046,193.2,20 / 26,198454,2021-05-02 13:35:14:656
-2.6979,-7.2485,-0.4427,-2.7399,-9.4064,-0.4268,0.0,0.0,0.0,-0.0501,-0.2152,-0.0533,24.55,25.31,-21.19,35.88499,14.480884,56.56,NaN,3.78,9.935046,193.2,20 / 26,198852,2021-05-02 13:35:15:054
7.3116,-9.5157,-4.0098,-5.479,-7.7524,-2.46,0.0,0.0,0.0,-0.0936,-0.0139,0.5922,16.93,34.15,-12.58,35.884983,14.480875,56.37,NaN,2.77,9.935046,171.1,19 / 26,199274,2021-05-02 13:35:15:476
-1.9941,-9.2249,-0.3697,-1.4407,-9.5788,-1.53,-1.6565,2.0327,2.3742,-0.0199,0.4232,-0.0272,17.81,27.89,-22.77,35.884983,14.480875,56.37,NaN,2.77,9.935046,171.1,19 / 26,199847,2021-05-02 13:35:16:049
0.0179,-8.6192,-1.5559,-0.402,-9.5259,-2.295,0.1564,-0.7393,-0.1036,-0.6703,-0.8979,0.6538,22.66,29.73,-14.09,35.884975,14.480871,56.68,NaN,3.02,9.935046,139.0,19 / 26,200273,2021-05-02 13:35:16:475
-4.3343,-12.5743,-2.7745,-2.9364,-9.3556,-0.1426,-3.8088,-0.2782,-1.2773,1.1505,-0.3237,0.1655,20.97,29.17,-15.09,35.884975,14.480871,56.68,NaN,3.02,9.935046,139.0,19 / 26,200842,2021-05-02 13:35:17:044
-2.2744,-9.2345,1.1171,-2.0516,-9.5421,-0.9542,-0.6239,0.4254,1.2746,-0.7367,-0.4849,-0.1242,10.72,27.73,-25.82,35.884968,14.480869,56.95,NaN,2.7,9.935046,138.3,20 / 26,201274,2021-05-02 13:35:17:476
-0.8438,-9.1938,-2.8032,-0.5807,-9.2059,-3.3293,-0.3588,2.4448,1.8279,-0.511,0.5989,0.2301,4.07,33.43,-19.75,35.884968,14.480869,56.95,NaN,2.7,9.935046,138.3,20 / 26,201774,2021-05-02 13:35:17:976
1.9131,-13.1943,0.5976,0.9866,-8.6363,-4.5399,7.9142,-2.2631,0.2532,-0.7915,-2.305,0.2329,6.97,37.14,-10.46,35.88496,14.480868,56.91,NaN,2.81,9.935046,142.5,17 / 26,202274,2021-05-02 13:35:18:476
-0.1376,-3.4229,-6.3574,-2.5578,-8.3286,-4.5015,4.492,-4.4566,5.6001,-0.3496,-3.9656,0.9806,6.62,38.55,-5.25,35.88496,14.480868,56.91,NaN,2.81,9.935046,142.5,17 / 26,202834,2021-05-02 13:35:19:036
7.6863,-7.5395,-3.9811,1.9089,-9.6115,-0.3803,0.0,0.0,0.0,0.1355,1.4695,-4.4758,-6.14,37.6,-3.06,35.884953,14.480862,57.62,NaN,2.95,9.935046,169.6,18 / 26,203280,2021-05-02 13:35:19:482
7.6863,-7.5395,-3.9811,1.9089,-9.6115,-0.3803,0.0,0.0,0.0,0.1355,1.4695,-4.4758,-6.14,37.6,-3.06,35.884953,14.480862,57.62,NaN,2.95,9.935046,169.6,18 / 26,203281,2021-05-02 13:35:19:483
-1.4758,-27.2764,10.0543,3.5171,-4.6966,-7.8577,0.0,0.0,0.0,-0.029,5.856,-2.4739,-2.9,37.87,-2.56,35.884945,14.480854,58.17,NaN,3.02,9.935046,199.2,19 / 26,203729,2021-05-02 13:35:19:931
-2.115,-12.1014,6.2955,-1.5666,-9.3336,2.5691,0.0,0.0,0.0,-1.7408,-0.5773,-1.6432,22.79,27.8,-8.33,35.884945,14.480854,58.17,NaN,3.02,9.935046,199.2,19 / 26,203908,2021-05-02 13:35:20:110
-0.7205,5.1494,2.1275,2.7587,-9.3515,1.0534,0.0,0.0,0.0,3.403,1.8962,0.4363,34.94,-2.45,-0.68,35.884933,14.480853,59.55,NaN,3.53,9.935046,162.8,19 / 26,204482,2021-05-02 13:35:20:684
-6.6087,-7.2676,-11.3647,-0.3479,-6.6819,-7.1694,0.0,0.0,0.0,0.6906,3.5655,1.5534,34.16,-1.57,4.21,35.884933,14.480853,59.55,NaN,3.53,9.935046,162.8,19 / 26,204665,2021-05-02 13:35:20:867
2.3871,8.4329,4.7465,-5.7646,-0.8003,7.893,0.0,0.0,0.0,0.3308,0.2016,1.0155,-1.38,25.75,24.45,35.88492,14.48085,59.8,NaN,3.17,9.935046,187.8,18 / 26,205243,2021-05-02 13:35:21:445
2.3871,8.4329,4.7465,-5.7646,-0.8003,7.893,0.0,0.0,0.0,0.3308,0.2016,1.0155,-1.38,25.75,24.45,35.88492,14.48085,59.8,NaN,3.17,9.935046,187.8,18 / 26,205244,2021-05-02 13:35:21:446
-6.184,-12.8375,4.4581,-2.7006,-9.0593,-2.609,0.0,0.0,0.0,0.9564,0.1245,2.0508,-3.7,25.19,25.68,35.884903,14.480861,57.75,NaN,6.7,9.935046,127.3,18 / 26,205691,2021-05-02 13:35:21:893
2.6862,2.1589,-0.7935,9.6426,-0.5314,-1.7055,0.0,0.0,0.0,-1.7948,1.6441,-1.6966,5.89,23.34,29.02,35.884903,14.480861,57.75,NaN,6.7,9.935046,127.3,18 / 26,206142,2021-05-02 13:35:22:344
-11.4473,-16.6035,17.7141,-2.465,-8.0852,-4.9723,0.0,0.0,0.0,-0.3705,2.3507,-0.1142,5.95,21.9,31.38,35.8849,14.480868,57.54,NaN,3.56,9.935046,103.5,19 / 26,206525,2021-05-02 13:35:22:727
1.7767,6.612,15.4923,-0.1765,3.4686,9.1711,0.0,0.0,0.0,0.565,-1.1372,-1.7015,16.07,21.0,27.86,35.8849,14.480868,57.54,NaN,3.56,9.935046,103.5,19 / 26,206555,2021-05-02 13:35:22:757
-5.383,-15.1923,2.8469,-2.9443,-9.1468,1.959,0.0,0.0,0.0,-1.5439,-2.358,-1.3768,31.73,18.06,16.27,35.884903,14.480889,56.8,NaN,4.64,9.935046,31.7,20 / 26,207056,2021-05-02 13:35:23:258
-5.383,-15.1923,2.8469,-2.9443,-9.1468,1.959,0.0,0.0,0.0,-1.5439,-2.358,-1.3768,31.73,18.06,16.27,35.884903,14.480889,56.8,NaN,4.64,9.935046,31.7,20 / 26,207059,2021-05-02 13:35:23:261
-5.383,-15.1923,2.8469,-2.9443,-9.1468,1.959,0.0,0.0,0.0,-1.5439,-2.358,-1.3768,31.73,18.06,16.27,35.884903,14.480889,56.8,NaN,4.64,9.935046,31.7,20 / 26,207371,2021-05-02 13:35:23:573
-4.3367,-14.2968,2.8217,-1.2615,-9.7226,0.2226,0.0,0.0,0.0,-1.257,1.0279,-2.4959,30.77,23.75,-11.3,35.884903,14.480889,56.8,NaN,4.64,9.935046,31.7,20 / 26,207543,2021-05-02 13:35:23:745
-2.9351,-9.3529,0.7591,-1.3255,-9.668,-0.9714,0.0,0.0,0.0,0.6278,0.43,0.8941,17.02,28.91,-19.04,35.88491,14.48089,57.93,NaN,5.26,9.935046,354.3,19 / 26,208137,2021-05-02 13:35:24:339
-2.9351,-9.3529,0.7591,-1.3255,-9.668,-0.9714,0.0,0.0,0.0,0.6278,0.43,0.8941,17.02,28.91,-19.04,35.88491,14.48089,57.93,NaN,5.26,9.935046,354.3,19 / 26,208138,2021-05-02 13:35:24:340
1.6831,-10.2066,1.299,1.4036,-9.6908,0.5375,0.0,0.0,0.0,0.2393,0.2298,0.6716,18.17,27.52,-19.93,35.88492,14.480889,58.77,NaN,4.68,9.935046,343.3,19 / 26,208581,2021-05-02 13:35:24:783
0.4705,-8.8071,2.3106,-0.7699,-9.7357,0.8906,0.0,0.0,0.0,0.2599,0.4606,0.2025,10.77,32.51,-13.53,35.88492,14.480889,58.77,NaN,4.68,9.935046,343.3,19 / 26,208907,2021-05-02 13:35:25:109
-2.7398,-12.3434,-6.7403,-1.5955,-9.0416,-3.446,0.0,0.0,0.0,1.8996,1.6191,-0.1034,11.7,33.12,-13.64,35.884926,14.480887,59.76,NaN,3.96,9.935046,342.6,19 / 26,209353,2021-05-02 13:35:25:555
-2.5962,-8.2086,-3.1074,-1.9441,-9.5982,0.5148,-0.3251,-0.1275,-0.9908,-0.2642,-0.0719,0.3221,17.48,27.01,-19.93,35.884926,14.480887,59.76,NaN,3.96,9.935046,342.6,19 / 26,209928,2021-05-02 13:35:26:130
-0.0909,-7.0152,3.061,-1.6557,-9.4724,-1.9243,-5.4161,-2.269,-3.799,0.6154,0.7975,1.3808,8.34,34.03,-11.22,35.88493,14.480886,60.18,NaN,3.92,9.935046,345.0,18 / 26,210352,2021-05-02 13:35:26:554
-0.9347,-9.2309,-1.3848,-2.747,-9.414,0.0126,0.9287,-0.4679,0.7672,0.5687,0.0447,0.6834,16.14,26.56,-17.81,35.88493,14.480886,60.18,NaN,3.92,9.935046,345.0,18 / 26,210951,2021-05-02 13:35:27:153
2.0937,-4.3205,-2.2765,1.3318,-9.3929,-2.4841,-4.63,3.3198,2.2971,0.6141,-1.6427,1.7449,16.59,27.21,-12.36,35.88493,14.480886,60.18,NaN,3.92,9.935046,345.0,17 / 26,211356,2021-05-02 13:35:27:558
-2.3318,-9.1161,-0.5384,-3.1406,-9.2519,0.8426,1.2154,0.7749,-4.2949,-0.1211,0.5429,0.4371,14.76,28.84,-15.05,35.88493,14.480886,60.18,NaN,3.92,9.935046,345.0,17 / 26,211853,2021-05-02 13:35:28:055
-6.7549,-4.3959,-0.2154,1.0085,-9.4455,-2.4362,-1.5487,-1.2454,4.3575,-1.4897,-2.0708,-2.1926,20.67,25.22,-11.96,35.884937,14.480883,59.85,NaN,2.74,9.935046,341.0,16 / 26,212353,2021-05-02 13:35:28:555
-6.4663,-8.5738,-6.0784,-1.835,-9.5989,-0.8148,2.0552,6.0315,9.4019,0.029,-1.2095,1.2612,9.44,33.07,-8.05,35.884937,14.480883,59.85,NaN,2.74,9.935046,341.0,16 / 26,212852,2021-05-02 13:35:29:054
-2.0109,-7.7321,-0.8007,0.1281,-9.5371,-2.2797,1.4153,0.4586,1.3363,-1.3584,-0.3696,-0.3613,22.88,22.9,-13.11,35.884937,14.480883,59.85,NaN,2.74,9.935046,341.0,17 / 26,213353,2021-05-02 13:35:29:555
-1.7776,-5.1407,1.488,-1.3643,-9.5811,-1.5848,1.6441,-1.3627,-1.2472,0.3735,1.1047,0.2538,20.84,27.07,-4.56,35.884937,14.480883,59.85,NaN,2.74,9.935046,341.0,17 / 26,213853,2021-05-02 13:35:30:055
-1.0005,-10.6134,-0.7816,-2.3388,-9.5143,0.4225,3.5296,-0.885,-2.2302,0.7843,0.0367,0.538,24.51,21.53,-11.89,35.88495,14.480884,59.4,NaN,3.42,9.935046,7.3,18 / 26,214353,2021-05-02 13:35:30:555
-1.4961,-7.876,-3.2701,0.7333,-9.2686,-3.1186,-1.0376,0.1675,-0.4089,-0.3693,-0.1822,-1.2498,23.73,23.66,-6.66,35.88495,14.480884,59.4,NaN,3.42,9.935046,7.3,18 / 26,214915,2021-05-02 13:35:31:117
2.5834,-4.9729,1.3708,-3.7296,-8.9698,-1.3424,3.2231,-5.0676,2.1873,1.4807,0.242,1.7146,23.44,24.99,-3.67,35.88495,14.480884,59.4,NaN,3.42,9.935046,7.3,17 / 26,215353,2021-05-02 13:35:31:555
-5.9408,-21.2276,14.2678,1.4068,-8.8441,-3.9967,-5.6119,10.0994,10.4847,2.4173,2.3209,2.3272,18.4,25.05,-9.61,35.88495,14.480884,59.4,NaN,3.42,9.935046,7.3,17 / 26,215853,2021-05-02 13:35:32:055
-10.8583,5.0151,-55.337,-2.2237,-3.9822,-8.6814,-30.4458,-5.3457,-1.9873,-9.7006,-6.5545,-0.4496,15.76,18.91,-11.66,35.884956,14.480888,58.28,NaN,3.06,9.935046,349.3,18 / 26,216355,2021-05-02 13:35:32:557
-8.7622,-19.2527,19.9657,-4.1907,-6.4976,-6.0324,-1.671,-11.7578,3.2568,2.9921,1.3232,3.4236,-16.18,29.6,9.31,35.884956,14.480888,58.28,NaN,3.06,9.935046,349.3,18 / 26,216853,2021-05-02 13:35:33:055
-0.7887,-9.8677,3.754,0.5635,-8.9969,-3.8611,-11.0423,-36.0542,-2.7468,-0.7904,1.3723,-1.3671,20.79,23.38,-18.82,35.884964,14.480884,58.59,NaN,2.95,9.935046,334.1,18 / 26,217353,2021-05-02 13:35:33:555
4.1599,-2.161,-4.8694,-2.0492,-9.4366,-1.7093,-0.9072,-20.5697,5.3605,-0.4543,0.399,0.2321,16.98,28.55,-17.48,35.884964,14.480884,58.59,NaN,2.95,9.935046,334.1,18 / 26,217853,2021-05-02 13:35:34:055
-7.2215,-6.4573,0.9266,1.1724,-9.351,-2.7119,1.3706,-0.7511,2.7842,-0.0588,-0.7031,-0.3746,21.26,24.74,-19.04,35.88497,14.480878,57.44,NaN,2.92,9.935046,325.5,20 / 26,218454,2021-05-02 13:35:34:656
-7.2215,-6.4573,0.9266,1.1724,-9.351,-2.7119,1.3706,-0.7511,2.7842,-0.0588,-0.7031,-0.3746,21.26,24.74,-19.04,35.88497,14.480878,57.44,NaN,2.92,9.935046,325.5,20 / 26,218454,2021-05-02 13:35:34:656
-4.8156,2.4404,0.1008,-8.049,-5.1653,2.1688,0.0,0.0,0.0,0.2935,-0.1432,1.8093,21.72,25.22,-18.08,35.884983,14.480874,56.94,NaN,3.71,9.935046,347.1,20 / 26,218923,2021-05-02 13:35:35:125
-4.8156,2.4404,0.1008,-8.049,-5.1653,2.1688,0.0,0.0,0.0,0.2935,-0.1432,1.8093,21.72,25.22,-18.08,35.884983,14.480874,56.94,NaN,3.71,9.935046,347.1,20 / 26,218924,2021-05-02 13:35:35:126
-11.385,-20.7981,-2.1269,-3.1595,-8.9139,2.5943,0.0,0.0,0.0,1.512,0.4916,0.5817,23.34,29.32,-10.76,35.884995,14.480872,56.77,NaN,4.9,9.935046,352.7,20 / 26,219510,2021-05-02 13:35:35:712
-11.385,-20.7981,-2.1269,-3.1595,-8.9139,2.5943,0.0,0.0,0.0,1.512,0.4916,0.5817,23.34,29.32,-10.76,35.884995,14.480872,56.77,NaN,4.9,9.935046,352.7,20 / 26,219511,2021-05-02 13:35:35:713
-1.1288,-3.5545,2.313,0.2774,-7.9034,5.7991,0.0,0.0,0.0,0.2393,0.2396,0.0681,14.21,35.11,-10.42,35.885014,14.480869,57.33,NaN,6.3,9.935046,352.3,19 / 26,219991,2021-05-02 13:35:36:193
2.3261,-6.8716,-1.162,3.0777,-9.1665,-1.6348,0.0,0.0,0.0,0.6706,-0.6322,0.6034,14.26,35.21,-8.61,35.885014,14.480869,57.33,NaN,6.3,9.935046,352.3,19 / 26,220368,2021-05-02 13:35:36:570
0.3114,-9.7983,0.9242,-0.0194,-9.8057,-0.1363,0.7951,0.4582,-0.2628,-0.0163,0.1796,-0.0629,15.73,30.11,-19.37,35.88503,14.480867,56.89,NaN,6.05,9.935046,358.7,18 / 26,220915,2021-05-02 13:35:37:117
0.3114,-9.7983,0.9242,-0.0194,-9.8057,-0.1363,0.7951,0.4582,-0.2628,-0.0163,0.1796,-0.0629,15.73,30.11,-19.37,35.88503,14.480867,56.89,NaN,6.05,9.935046,358.7,18 / 26,220915,2021-05-02 13:35:37:117
-0.1029,-9.6488,0.1558,0.3859,-9.799,0.0143,0.0,0.0,0.0,-0.0628,-1.1267,-0.0531,16.69,29.51,-19.53,35.885044,14.480867,56.4,NaN,5.76,9.935046,3.7,18 / 26,221373,2021-05-02 13:35:37:575
-0.1029,-9.6488,0.1558,0.3859,-9.799,0.0143,0.0,0.0,0.0,-0.0628,-1.1267,-0.0531,16.69,29.51,-19.53,35.885044,14.480867,56.4,NaN,5.76,9.935046,3.7,18 / 26,221374,2021-05-02 13:35:37:576
-0.3697,-8.6037,-2.2956,-0.3619,-9.471,-2.5178,0.0,0.0,0.0,1.3778,-0.385,0.9454,9.76,36.71,-6.84,35.885056,14.480874,56.31,NaN,5.72,9.935046,16.9,18 / 26,221842,2021-05-02 13:35:38:044
-0.3697,-8.6037,-2.2956,-0.3619,-9.471,-2.5178,0.0,0.0,0.0,1.3778,-0.385,0.9454,9.76,36.71,-6.84,35.885056,14.480874,56.31,NaN,5.72,9.935046,16.9,18 / 26,221843,2021-05-02 13:35:38:045
-0.4403,-9.8031,-3.8734,0.1586,-9.255,-3.2387,0.0,0.0,0.0,-0.4571,0.5058,-0.1559,20.28,31.74,-12.93,35.885063,14.480887,57.94,NaN,5.98,9.935046,42.6,18 / 26,222262,2021-05-02 13:35:38:464
-0.4403,-9.8031,-3.8734,0.1586,-9.255,-3.2387,0.0,0.0,0.0,-0.4571,0.5058,-0.1559,20.28,31.74,-12.93,35.885063,14.480887,57.94,NaN,5.98,9.935046,42.6,18 / 26,222262,2021-05-02 13:35:38:464
-0.0491,-7.9178,0.1546,-0.9594,-9.6328,-1.5684,0.0,0.0,0.0,2.6656,-1.8935,0.4404,10.11,36.0,-9.91,35.88507,14.480899,58.59,NaN,5.4,9.935046,50.0,18 / 26,222668,2021-05-02 13:35:38:870
-1.8242,-18.8635,-14.1117,-0.9728,-9.6825,1.2137,-0.5678,-1.0358,-3.7599,1.1182,-0.0617,-0.1419,9.67,34.78,-12.26,35.88507,14.48091,59.74,NaN,5.36,9.935046,53.4,19 / 26,223449,2021-05-02 13:35:39:651
-1.8242,-18.8635,-14.1117,-0.9728,-9.6825,1.2137,-0.5678,-1.0358,-3.7599,1.1182,-0.0617,-0.1419,9.67,34.78,-12.26,35.88507,14.48091,59.74,NaN,5.36,9.935046,53.4,19 / 26,223450,2021-05-02 13:35:39:652
-1.8242,-18.8635,-14.1117,-0.9728,-9.6825,1.2137,-0.5678,-1.0358,-3.7599,1.1182,-0.0617,-0.1419,9.67,34.78,-12.26,35.88507,14.48091,59.74,NaN,5.36,9.935046,53.4,19 / 26,223450,2021-05-02 13:35:39:652
1.2763,-10.0519,0.6574,0.9697,-9.7561,0.2191,0.0,0.0,0.0,-1.113,1.1033,-0.2595,0.84,32.73,-20.67,35.88507,14.480921,60.19,NaN,5.26,9.935046,57.0,19 / 26,223849,2021-05-02 13:35:40:051
1.2763,-10.0519,0.6574,0.9697,-9.7561,0.2191,0.0,0.0,0.0,-1.113,1.1033,-0.2595,0.84,32.73,-20.67,35.88507,14.480921,60.19,NaN,5.26,9.935046,57.0,19 / 26,223849,2021-05-02 13:35:40:051
1.2763,-10.0519,0.6574,0.9697,-9.7561,0.2191,0.0,0.0,0.0,-0.6483,-0.1926,-0.1747,11.96,27.24,-23.52,35.885063,14.480926,60.01,NaN,2.77,9.935046,110.7,19 / 26,224276,2021-05-02 13:35:40:478
1.2763,-10.0519,0.6574,0.9697,-9.7561,0.2191,0.0,0.0,0.0,-0.6483,-0.1926,-0.1747,11.96,27.24,-23.52,35.885063,14.480926,60.01,NaN,2.77,9.935046,110.7,19 / 26,224277,2021-05-02 13:35:40:479
4.2736,0.6915,-6.1932,3.7138,-8.9321,-1.6113,0.0,0.0,0.0,1.2779,-1.1191,0.1376,27.01,24.51,-4.98,35.88506,14.480939,62.1,NaN,5.26,9.935046,94.8,18 / 26,224683,2021-05-02 13:35:40:885
6.6329,-36.3057,-0.9993,0.1031,-9.6266,-1.8678,-5.2324,14.5464,2.897,0.8098,0.0057,0.5679,27.07,23.55,-7.64,35.88506,14.480939,62.1,NaN,5.26,9.935046,94.8,18 / 26,225180,2021-05-02 13:35:41:382
-10.2742,-20.8376,1.177,1.6427,-9.5427,-1.5519,-6.3981,10.4357,8.0016,2.6389,-1.0772,0.0076,26.44,25.19,-4.12,35.885063,14.480951,61.11,NaN,6.23,9.935046,45.0,19 / 26,225679,2021-05-02 13:35:41:881
-18.4523,-8.624,6.536,2.9715,-8.6881,-3.4435,-9.6699,8.3486,-9.1218,0.079,4.5725,3.6529,22.14,28.83,-4.36,35.885063,14.480951,61.11,NaN,6.23,9.935046,45.0,19 / 26,226180,2021-05-02 13:35:42:382
0.2527,4.0301,-5.6186,5.246,-7.4295,-3.6678,-49.3455,-14.4789,17.0774,-0.7416,-11.494,5.2032,14.93,28.52,0.57,35.88509,14.480949,59.68,NaN,11.45,9.935046,358.4,19 / 26,226680,2021-05-02 13:35:42:882
-1.8015,-4.4198,2.3166,-3.3184,-9.1977,-0.7488,3.901,4.2942,-3.561,-0.9325,-1.2588,-1.8901,10.92,34.55,11.08,35.88509,14.480949,59.68,NaN,11.45,9.935046,358.4,19 / 26,227180,2021-05-02 13:35:43:382
-4.9161,-15.6075,8.5902,-0.3553,-9.7717,-0.7468,-5.7367,-9.0947,2.4209,1.5766,-1.7466,1.2829,-11.75,36.84,-1.31,35.88511,14.480934,59.6,NaN,9.9,9.935046,344.1,19 / 26,227679,2021-05-02 13:35:43:881
-1.8075,-4.3887,0.807,-0.1369,-9.7573,-0.9726,-9.5365,-16.0604,-2.0279,-0.385,-1.1464,-0.1626,-16.81,33.72,-8.23,35.88511,14.480934,59.6,NaN,9.9,9.935046,344.1,19 / 26,228180,2021-05-02 13:35:44:382
-0.4068,-7.9167,-10.1064,1.4485,-7.8084,-5.7533,0.0,0.0,0.0,0.0057,-0.6148,0.1991,-22.97,31.0,-4.53,35.885117,14.48091,59.39,NaN,9.32,9.935046,330.4,19 / 26,228976,2021-05-02 13:35:45:178
-4.2254,-4.4031,-0.6185,-7.8151,-5.822,-1.0949,0.0,0.0,0.0,-0.242,0.5957,0.5226,-21.55,30.71,-8.5,35.885117,14.48091,59.39,NaN,9.32,9.935046,330.4,19 / 26,229136,2021-05-02 13:35:45:338
2.441,-9.2919,1.6199,-1.6522,-9.653,0.5097,0.6975,-2.7313,-4.8214,0.3528,0.7962,0.4108,-28.82,25.31,-2.88,35.885113,14.48088,59.85,NaN,7.88,9.935046,303.6,18 / 26,229639,2021-05-02 13:35:45:841
1.8341,-9.1878,-0.032,0.6571,-9.766,-0.6031,0.0,0.0,0.0,0.6606,-0.399,0.9025,-24.56,27.63,-9.19,35.885113,14.48088,59.85,NaN,7.88,9.935046,303.6,18 / 26,230138,2021-05-02 13:35:46:340
-8.0692,-8.5176,-10.2021,-0.3656,-9.7975,0.2159,2.4583,0.1655,1.5455,0.6866,-2.0879,0.5409,-30.8,24.41,0.76,35.885094,14.480862,59.69,NaN,4.21,9.935046,242.0,20 / 26,230640,2021-05-02 13:35:46:842
1.9681,-13.308,-4.0819,-0.9707,-9.7413,0.5789,6.459,-1.319,2.1152,-0.1628,-0.383,0.9312,-25.42,29.28,-2.38,35.885094,14.480862,59.69,NaN,4.21,9.935046,242.0,20 / 26,231233,2021-05-02 13:35:47:435
3.894,-13.7079,-10.0908,-3.8452,-8.9413,-1.1991,0.4616,1.2733,-0.9845,0.9157,0.1025,-0.2219,-31.85,20.67,9.59,35.88507,14.48085,59.76,NaN,3.56,9.935046,214.9,19 / 26,231640,2021-05-02 13:35:47:842
1.9813,-8.1751,-1.975,-0.7664,-9.7748,0.1885,3.4572,0.1282,-0.9889,-0.0667,-0.0618,0.4795,-29.38,25.05,4.32,35.88507,14.48085,59.76,NaN,3.56,9.935046,214.9,19 / 26,232137,2021-05-02 13:35:48:339
-1.5882,-6.4167,-2.237,2.8558,-8.6358,-3.6657,-4.1765,2.1978,1.5466,-0.5406,-0.7449,-1.2348,-31.56,22.05,4.1,35.885056,14.480844,59.21,NaN,3.13,9.935046,188.8,20 / 26,232640,2021-05-02 13:35:48:842
7.1166,-10.2987,-1.8685,0.9981,-9.6233,-1.6018,-0.1016,3.0137,2.4391,1.0404,1.3623,-0.6328,-33.26,20.4,5.53,35.885056,14.480844,59.21,NaN,3.13,9.935046,188.8,20 / 26,233231,2021-05-02 13:35:49:433
-4.3822,-14.4894,-7.6837,-1.0965,-9.5842,-1.7638,0.0,0.0,0.0,-0.104,-0.0501,0.3369,-33.67,19.91,4.09,35.885036,14.480834,58.88,NaN,5.62,9.935046,201.7,20 / 26,233672,2021-05-02 13:35:49:874
-4.3822,-14.4894,-7.6837,-1.0965,-9.5842,-1.7638,0.0,0.0,0.0,-0.104,-0.0501,0.3369,-33.67,19.91,4.09,35.885036,14.480834,58.88,NaN,5.62,9.935046,201.7,20 / 26,233673,2021-05-02 13:35:49:875
3.0144,-9.1424,0.2049,3.5053,-9.1173,0.8707,0.0,0.0,0.0,-0.1715,-0.1139,0.3489,-25.61,27.35,-7.88,35.88503,14.480829,58.55,NaN,2.66,9.935046,214.1,20 / 26,234087,2021-05-02 13:35:50:289
3.0144,-9.1424,0.2049,3.5053,-9.1173,0.8707,0.0,0.0,0.0,-0.1715,-0.1139,0.3489,-25.61,27.35,-7.88,35.88503,14.480829,58.55,NaN,2.66,9.935046,214.1,20 / 26,234088,2021-05-02 13:35:50:290
-1.0077,-5.3213,3.8919,0.0065,-7.7144,6.0546,0.0,0.0,0.0,0.6457,1.7672,-0.0527,-33.53,22.67,-1.63,35.885025,14.480823,58.6,NaN,2.7,9.935046,222.1,19 / 26,234542,2021-05-02 13:35:50:744
-1.0077,-5.3213,3.8919,0.0065,-7.7144,6.0546,0.0,0.0,0.0,0.6457,1.7672,-0.0527,-33.53,22.67,-1.63,35.885025,14.480823,58.6,NaN,2.7,9.935046,222.1,19 / 26,234543,2021-05-02 13:35:50:745
-0.839,-7.13,-2.589,0.0749,-9.376,-2.8731,0.0,0.0,0.0,1.3865,0.2376,1.5719,-27.25,27.41,-7.88,35.885017,14.480818,59.0,NaN,2.52,9.935046,218.1,18 / 26,234985,2021-05-02 13:35:51:187
-0.839,-7.13,-2.589,0.0749,-9.376,-2.8731,0.0,0.0,0.0,1.3865,0.2376,1.5719,-27.25,27.41,-7.88,35.885017,14.480818,59.0,NaN,2.52,9.935046,218.1,18 / 26,234986,2021-05-02 13:35:51:188
-4.5141,-11.8167,-1.2568,-1.3132,-9.7005,-0.5889,0.0,0.0,0.0,-1.081,1.8452,0.0469,-20.25,30.11,-13.55,35.885017,14.480818,59.0,NaN,2.52,9.935046,218.1,19 / 26,235569,2021-05-02 13:35:51:771
-4.5141,-11.8167,-1.2568,-1.3132,-9.7005,-0.5889,0.0,0.0,0.0,-1.081,1.8452,0.0469,-20.25,30.11,-13.55,35.885017,14.480818,59.0,NaN,2.52,9.935046,218.1,19 / 26,235570,2021-05-02 13:35:51:772
1.9525,-9.6523,-0.0679,2.0327,-9.5923,-0.1613,0.0,0.0,0.0,-0.4949,-0.2445,-0.1136,5.34,30.61,-22.61,35.884995,14.480817,58.27,NaN,6.77,9.935046,186.3,20 / 26,236000,2021-05-02 13:35:52:202
